"Timestamp","Accuracy","Acceleration X","Acceleration Y","Acceleration Z","Label","Cycle"
"2087590668325936","3","1.624","2.976","8.868","roll side","0"
"2087590688322459","3","1.713","2.899","8.617","none","1"
"2087590708319084","3","1.112","2.703","8.658","none","1"
"2087590728315748","3","1.107","2.64","9.405","none","1"
"2087590748312373","3","1.409","2.827","9.642","none","1"
"2087590768309233","3","1.603","3.009","9.324","none","1"
"2087590788305849","3","1.638","3.107","9.379","none","1"
"2087590808302233","3","1.648","3.045","9.604","none","1"
"2087590828299104","3","1.603","2.765","9.654","none","1"
"2087590848295469","3","1.365","2.624","9.786","none","1"
"2087590868292075","3","1.306","2.607","9.805","none","1"
"2087590888288916","3","1.341","2.808","9.644","none","1"
"2087590908285287","3","1.114","2.873","9.551","none","1"
"2087590928282128","3","0.789","2.734","9.388","none","1"
"2087590948278743","3","0.681","2.643","9.261","none","1"
"2087590968275392","3","0.535","2.612","9.211","none","1"
"2087590988271743","3","0.296","2.882","9.079","none","1"
"2087591008268594","3","0.6","2.219","9.027","none","1"
"2087591028265209","3","0.013","2.051","9.407","none","1"
"2087591048261829","3","-0.736","2.075","10.032","none","1"
"2087591068258430","3","-0.938","2.846","11.002","none","1"
"2087591088255045","3","-3.948","4.741","9.654","none","1"
"2087591108251671","3","-3.709","4.856","7.431","none","1"
"2087591128248271","3","-0.696","5.014","7.417","none","1"
"2087591148244887","3","0.061","5.833","7.954","none","1"
"2087591168241579","3","-0.071","5.869","7.81","none","1"
"2087591188238209","3","-1.299","5.275","6.751","none","1"
"2087591208234767","3","-2.341","4.743","6.205","none","1"
"2087591228231425","3","-2.918","4.204","6.452","none","1"
"2087591248228028","3","-2.552","4.197","7.022","none","1"
"2087591268224633","3","-0.418","4.705","8.09","none","1"
"2087591288221234","3","0.921","4.334","9.307","none","1"
"2087591308217878","3","-0.403","2.815","10.978","none","1"
"2087591328214724","3","-0.899","1.032","11.874","none","1"
"2087591348211090","3","-0.303","-0.4","11.891","none","1"
"2087591368207710","3","1.552","-1.021","11.582","none","1"
"2087591388204556","3","1.959","-1.136","10.509","none","1"
"2087591408200941","3","0.358","-1.327","9.949","none","1"
"2087591428197542","3","0.056","-1.509","9.913","none","1"
"2087591448194403","3","0.622","-1.013","11.05","none","1"
"2087591468191003","3","1.83","-0.489","11.941","none","1"
"2087591488187638","3","2.163","-0.257","13.019","none","1"
"2087591508184253","3","2.537","-0.185","11.522","none","1"
"2087591528180863","3","0.358","-0.012","9.75","none","1"
"2087591548177584","3","-1.043","0.093","10.188","none","1"
"2087591568174127","3","0.265","0.203","9.968","none","1"
"2087591588170767","3","1.818","-0.518","8.182","none","1"
"2087591608167459","3","4.807","-1.131","6.651","none","1"
"2087591628164065","3","4.084","-0.142","11.663","none","1"
"2087591648160603","3","3.523","0.093","13.879","none","1"
"2087591668157295","3","1.504","-1.677","13.982","none","1"
"2087591688153887","3","-0.806","-3.708","15.105","none","1"
"2087591708150502","3","-0.53","-3.476","14.351","none","1"
"2087591728147118","3","0.272","0.378","12.181","none","1"
"2087591748143733","3","-1.244","1.611","10.775","none","1"
"2087591768140340","3","-3.821","0.752","11.105","none","1"
"2087591788136955","3","-1.639","1.515","8.77","none","1"
"2087591808133570","3","0.049","1.711","5.844","none","1"
"2087591828130195","3","1.217","0.912","6.718","none","1"
"2087591848127027","3","2.367","-0.537","9.779","none","1"
"2087591868123624","3","5.106","-1.392","11.378","none","1"
"2087591888120244","3","4.213","-2.096","13.864","none","1"
"2087591908116859","3","-0.554","0.409","11.52","none","1"
"2087591928113470","3","0.351","1.039","8.993","none","1"
"2087591948110094","3","-0.142","0.206","10.169","none","1"
"2087591968106710","3","0.315","-0.103","10.859","none","1"
"2087591988103325","3","1.1","-0.606","9.946","none","1"
"2087592008100055","3","0.226","-1.241","9.357","none","1"
"2087592028096608","3","-0.447","-0.096","9.259","none","1"
"2087592048093314","3","-3.016","-0.657","9.652","none","1"
"2087592068089950","3","-10.206","-4.407","10.241","none","1"
"2087592088086565","3","-11.907","-7.09","10.293","none","1"
"2087592108083161","3","-5.364","-5.281","7.467","none","1"
"2087592128079767","3","-0.032","-3.684","8.679","none","1"
"2087592148076382","3","5.284","-0.87","13.05","none","1"
"2087592168073267","3","8.443","2.796","13.781","none","1"
"2087592188069651","3","3.298","1.218","10.174","none","1"
"2087592208066512","3","2.515","-1.011","4.773","none","1"
"2087592228063132","3","3.602","-2.498","8.5","none","1"
"2087592248059507","3","4.16","-3.191","13.136","none","1"
"2087592268056348","3","4.429","-2.745","11.673","none","1"
"2087592288052973","3","2.41","-1.576","8.782","none","1"
"2087592308049570","3","-0.72","-0.839","9.053","none","1"
"2087592328046267","3","-2.372","-1.315","10.442","none","1"
"2087592348042810","3","-0.159","-1.195","9.582","none","1"
"2087592368039420","3","2.412","-1.212","8.773","none","1"
"2087592388036127","3","1.847","-1.37","9.858","none","1"
"2087592408032748","3","0.346","-0.012","8.931","none","1"
"2087592428029391","3","1.301","1.651","7.898","none","1"
"2087592448025998","3","1.054","0.73","9.24","none","1"
"2087592468022627","3","0.224","-1.104","11.702","none","1"
"2087592488019243","3","2.834","-0.367","12.392","none","1"
"2087592508015858","3","5.756","-0.558","9.369","none","1"
"2087592528012444","3","0.545","-0.695","9.745","none","1"
"2087592548009084","3","-6.789","-0.149","10.408","none","1"
"2087592568005930","3","-8.987","0.594","9.913","none","1"
"2087592588002550","3","-2.6","-0.225","9.575","none","1"
"2087592607999176","3","2.106","-0.446","10.789","none","1"
"2087592627995791","3","-0.08","0.151","10.102","none","1"
"2087592647992402","3","-0.993","0.201","9.098","none","1"
"2087592667989002","3","0.267","-0.118","9.702","none","1"
"2087592687985618","3","0.255","-0.336","10.162","none","1"
"2087592707982214","3","-1.153","-0.113","9.98","none","1"
"2087592727978906","3","-0.439","-0.051","9.733","none","1"
"2087592747975498","3","-0.068","-0.132","9.989","none","1"
"2087592767972108","3","-0.451","-0.082","9.819","none","1"
"2087592787968724","3","-0.394","-0.178","10.056","none","1"
"2087592807965315","3","-0.08","-0.082","9.867","none","1"
"2087592827962166","3","-0.159","-0.077","9.855","none","1"
"2087592847958565","3","-0.576","-0.118","9.963","none","1"
"2087592867955156","3","-0.811","-0.067","9.865","none","1"
"2087592887952003","3","-0.803","-0.07","9.826","none","1"
"2087592907948633","3","-1.043","-0.029","9.997","none","1"
"2087592927945253","3","-0.732","-0.17","10.296","none","1"
"2087592947941869","3","-0.13","-0.216","10.363","none","1"
"2087592967938489","3","-0.099","-0.137","10.095","none","1"
"2087592987935100","3","-0.571","0.115","10.174","none","1"
"2087593007931777","3","-0.813","0.165","9.836","none","1"
"2087593027928393","3","-0.926","0.026","9.647","none","1"
"2087593047924941","3","-1.005","0.048","9.652","none","1"
"2087593067921623","3","-0.873","0.397","9.053","none","1"
"2087593087918176","3","-1.191","0.266","8.559","none","1"
"2087593107914791","3","-1.388","-0.01","9.589","none","1"
"2087593127911715","3","-1.182","0.04","10.351","none","1"
"2087593147908123","3","-1.766","0.026","10.478","none","1"
"2087593167904988","3","-1.601","0.093","9.015","none","1"
"2087593187901614","3","-0.554","0.256","8.195","none","1"
"2087593207897998","3","-0.59","0.218","9.879","none","1"
"2087593227894830","3","-1.46","0.081","11.204","none","1"
"2087593247891430","3","-1.726","-0.01","10.485","none","1"
"2087593267888041","3","-1.038","0.064","9.484","none","1"
"2087593287884661","3","-0.923","0.177","8.809","none","1"
"2087593307881295","3","-1.172","0.076","9.872","none","1"
"2087593327878003","3","-1.249","0.1","10.004","none","1"
"2087593347874627","3","-1.191","0.153","9.975","none","1"
"2087593367871243","3","-1.151","0.093","9.925","none","1"
"2087593387867868","3","-1.144","0.033","9.573","none","1"
"2087593407864483","3","-1.196","0.105","9.58","none","1"
"2087593427861089","3","-1.199","0.177","9.848","none","1"
"2087593447857940","3","-1.065","0.124","9.822","none","1"
"2087593467854301","3","-1.165","0.033","9.836","none","1"
"2087593487851132","3","-1.29","0.069","9.879","none","1"
"2087593507847829","3","-1.17","0.124","9.68","none","1"
"2087593527844392","3","-1.091","0.153","9.644","none","1"
"2087593547841095","3","-1.163","0.11","9.805","none","1"
"2087593567837634","3","-1.223","0.052","9.882","none","1"
"2087593587834253","3","-1.172","0.083","9.803","none","1"
"2087593607830941","3","-1.136","0.112","9.702","none","1"
"2087593627827552","3","-1.167","0.143","9.731","none","1"
"2087593647824152","3","-1.179","0.093","9.805","none","1"
"2087593667820773","3","-1.167","0.083","9.791","none","1"
"2087593687817388","3","-1.187","0.098","9.786","none","1"
"2087593707814013","3","-1.189","0.105","9.774","none","1"
"2087593727810855","3","-1.165","0.107","9.762","none","1"
"2087593747807479","3","-1.17","0.119","9.767","none","1"
"2087593767803859","3","-1.187","0.091","9.771","none","1"
"2087593787800700","3","-1.175","0.095","9.803","none","1"
"2087593807797316","3","-1.165","0.124","9.791","none","1"
"2087593827793927","3","-1.179","0.107","9.757","none","1"
"2087593847790513","3","-1.189","0.091","9.762","none","1"
"2087593867787129","3","-1.177","0.081","9.791","none","1"
"2087593887783811","3","-1.16","0.098","9.817","none","1"
"2087593907780432","3","-1.158","0.107","9.803","none","1"
"2087593927777032","3","-1.187","0.107","9.795","none","1"
"2087593947773648","3","-1.199","0.095","9.745","none","1"
"2087593967770263","3","-1.187","0.105","9.771","none","1"
"2087593987766878","3","-1.184","0.105","9.807","none","1"
"2087594007763730","3","-1.167","0.091","9.798","none","1"
"2087594027760350","3","-1.165","0.086","9.764","none","1"
"2087594047756960","3","-1.165","0.093","9.755","none","1"
"2087594067753566","3","-1.179","0.107","9.779","none","1"
"2087594087750186","3","-1.175","0.098","9.786","none","1"
"2087594107746888","3","-1.187","0.098","9.779","none","1"
"2087594127743489","3","-1.175","0.095","9.762","none","1"
"2087594147740095","3","-1.17","0.083","9.776","none","1"
"2087594167736744","3","-1.17","0.112","9.769","none","1"
"2087594187733364","3","-1.182","0.11","9.788","none","1"
"2087594207730008","3","-1.182","0.103","9.774","none","1"
"2087594227726859","3","-1.175","0.105","9.767","none","1"
"2087594247723474","3","-1.165","0.098","9.776","none","1"
"2087594267720090","3","-1.182","0.105","9.776","none","1"
"2087594287716494","3","-1.196","0.093","9.786","none","1"
"2087594307713331","3","-1.172","0.11","9.786","none","1"
"2087594327710013","3","-1.165","0.105","9.779","none","1"
"2087594347706547","3","-1.194","0.1","9.771","none","1"
"2087594367703172","3","-1.191","0.105","9.788","none","1"
"2087594387699873","3","-1.167","0.107","9.779","none","1"
"2087594407696494","3","-1.177","0.115","9.762","none","1"
"2087594427693109","3","-1.17","0.091","9.769","none","1"
"2087594447689740","3","-1.163","0.107","9.771","none","1"
"2087594467686595","3","-1.167","0.098","9.771","none","1"
"2087594487682966","3","-1.177","0.098","9.791","none","1"
"2087594507679801","3","-1.191","0.088","9.771","none","1"
"2087594527676161","3","-1.172","0.112","9.767","none","1"
"2087594547673013","3","-1.172","0.107","9.783","none","1"
"2087594567669637","3","-1.179","0.1","9.771","none","1"
"2087594587666258","3","-1.177","0.119","9.759","none","1"
"2087594607662950","3","-1.194","0.11","9.771","none","1"
"2087594627659560","3","-1.184","0.093","9.759","sit down","1"
"2087594647656186","3","-1.16","0.1","9.791","sit down","1"
"2087594667652786","3","-1.182","0.122","9.769","sit down","1"
"2087594687649354","3","-1.196","0.103","9.774","sit down","1"
"2087594707645959","3","-1.177","0.107","9.771","sit down","1"
"2087594727642810","3","-1.184","0.112","9.783","sit down","1"
"2087594747639195","3","-1.187","0.098","9.769","sit down","1"
"2087594767636028","3","-1.17","0.124","9.781","sit down","1"
"2087594787632648","3","-1.194","0.091","9.781","sit down","1"
"2087594807629277","3","-1.172","0.11","9.781","sit down","1"
"2087594827625974","3","-1.179","0.098","9.781","sit down","1"
"2087594847622523","3","-1.165","0.095","9.771","sit down","1"
"2087594867619196","3","-1.172","0.115","9.759","sit down","1"
"2087594887615812","3","-1.199","0.107","9.776","sit down","1"
"2087594907612427","3","-1.187","0.095","9.769","sit down","1"
"2087594927609273","3","-1.191","0.103","9.774","sit down","1"
"2087594947605908","3","-1.17","0.122","9.774","sit down","1"
"2087594967602301","3","-1.167","0.115","9.767","sit down","1"
"2087594987599158","3","-1.182","0.103","9.788","sit down","1"
"2087595007595797","3","-1.17","0.105","9.786","sit down","1"
"2087595027592420","3","-1.16","0.095","9.781","sit down","1"
"2087595047589036","3","-1.196","0.105","9.793","sit down","1"
"2087595067585643","3","-1.191","0.115","9.779","sit down","1"
"2087595087582259","3","-1.177","0.119","9.783","sit down","1"
"2087595107578864","3","-1.182","0.11","9.781","sit down","1"
"2087595127575523","3","-1.179","0.112","9.781","sit down","1"
"2087595147572123","3","-1.189","0.115","9.776","sit down","1"
"2087595167568950","3","-1.184","0.115","9.786","sit down","1"
"2087595187565566","3","-1.189","0.117","9.781","sit down","1"
"2087595207561940","3","-1.172","0.098","9.786","sit down","1"
"2087595227558771","3","-1.175","0.11","9.779","sit down","1"
"2087595247555354","3","-1.184","0.103","9.769","sit down","1"
"2087595267551964","3","-1.175","0.088","9.779","sit down","1"
"2087595287548565","3","-1.177","0.105","9.75","sit down","1"
"2087595307545243","3","-1.187","0.107","9.776","sit down","1"
"2087595327541883","3","-1.182","0.11","9.786","sit down","1"
"2087595347538498","3","-1.17","0.122","9.771","sit down","1"
"2087595367535103","3","-1.194","0.11","9.783","sit down","1"
"2087595387531955","3","-1.184","0.11","9.755","sit down","1"
"2087595407528339","3","-1.175","0.098","9.779","sit down","1"
"2087595427525175","3","-1.175","0.098","9.759","sit down","1"
"2087595447521791","3","-1.182","0.093","9.771","sit down","1"
"2087595467518406","3","-1.163","0.095","9.791","sit down","1"
"2087595487515113","3","-1.189","0.105","9.767","sit down","1"
"2087595507511738","3","-1.23","0.1","9.759","sit down","1"
"2087595527508364","3","-1.122","0.091","9.807","sit down","1"
"2087595547504988","3","-1.163","0.088","9.762","sit down","1"
"2087595567501598","3","-1.235","0.119","9.793","sit down","1"
"2087595587498209","3","-1.184","0.105","9.747","sit down","1"
"2087595607495046","3","-1.129","0.095","9.745","sit down","1"
"2087595627491435","3","-1.211","0.127","9.807","sit down","1"
"2087595647488031","3","-1.203","0.115","9.774","sit down","1"
"2087595667484863","3","-1.144","0.103","9.764","sit down","1"
"2087595687481469","3","-1.191","0.122","9.767","sit down","1"
"2087595707478084","3","-1.187","0.119","9.783","sit down","1"
"2087595727474777","3","-1.165","0.088","9.759","sit down","1"
"2087595747471402","3","-1.172","0.11","9.774","sit down","1"
"2087595767468017","3","-1.179","0.093","9.793","sit down","1"
"2087595787464653","3","-1.306","0.107","9.649","sit down","1"
"2087595807461258","3","-1.474","0.225","9.3","sit down","1"
"2087595827457864","3","-1.749","0.261","8.43","sit down","1"
"2087595847454701","3","-1.917","0.036","7.429","sit down","1"
"2087595867451057","3","-2.09","0.404","8.076","sit down","1"
"2087595887447927","3","-2.281","0.23","12.945","sit down","1"
"2087595907444628","3","-2.01","-0.417","14.205","sit down","1"
"2087595927441163","3","-1.326","0.553","8.102","sit down","1"
"2087595947437869","3","0.04","0.462","5.712","sit down","1"
"2087595967434418","3","1.2","-0.266","9.077","sit down","1"
"2087595987431124","3","1.155","-0.882","14.159","sit down","1"
"2087596007427758","3","0.159","-0.194","11.814","sit down","1"
"2087596027424384","3","0.296","0.16","7.731","sit down","1"
"2087596047421234","3","0.305","-0.305","10.054","sit down","1"
"2087596067417825","3","-0.521","-0.122","11.273","sit down","1"
"2087596087414456","3","-0.76","-0.101","9.58","sit down","1"
"2087596107411127","3","-0.504","-0.01","9.85","sit down","1"
"2087596127407676","3","-1.019","0.177","9.7","sit down","1"
"2087596147404291","3","-1.318","-0.07","9.582","sit down","1"
"2087596167400983","3","-1.06","0.048","9.836","sit down","1"
"2087596187397613","3","-0.928","0.136","9.577","sit down","1"
"2087596207394469","3","-1.084","0.05","9.712","sit down","1"
"2087596227391070","3","-1.002","0.033","9.776","sit down","1"
"2087596247387459","3","-0.83","0.05","9.714","sit down","1"
"2087596267384296","3","-0.89","0.048","9.695","sit down","1"
"2087596287380907","3","-0.914","0.019","9.791","sit down","1"
"2087596307377507","3","-0.794","-0.005","9.788","sit down","1"
"2087596327374191","3","-0.653","-0.003","9.882","sit down","1"
"2087596347370714","3","-0.65","-0.029","9.877","sit down","1"
"2087596367367406","3","-0.59","-0.055","9.894","sit down","1"
"2087596387364036","3","-0.466","-0.065","9.896","sit down","1"
"2087596407360642","3","-0.411","-0.103","9.973","sit down","1"
"2087596427357258","3","-0.411","-0.101","9.961","sit down","1"
"2087596447354109","3","-0.375","-0.089","9.867","sit down","1"
"2087596467350714","3","-0.32","-0.091","9.968","sit down","1"
"2087596487347340","3","-0.303","-0.111","9.992","sit down","1"
"2087596507343955","3","-0.305","-0.13","9.922","sit down","1"
"2087596527340571","3","-0.36","-0.089","9.932","sit down","1"
"2087596547337200","3","-0.447","-0.096","9.932","sit down","1"
"2087596567333901","3","-0.528","-0.063","9.929","sit down","1"
"2087596587330546","3","-0.547","-0.039","9.834","sit down","1"
"2087596607327402","3","-0.593","-0.036","9.882","sit down","1"
"2087596627324023","3","-0.677","-0.015","9.841","sit down","1"
"2087596647320397","3","-0.715","-0.005","9.805","sit down","1"
"2087596667317248","3","-0.732","-0.008","9.779","sit down","1"
"2087596687313859","3","-0.741","-0.022","9.74","sit down","1"
"2087596707310493","3","-0.72","-0.043","9.812","sit down","1"
"2087596727307109","3","-0.677","-0.043","9.805","sit down","1"
"2087596747303787","3","-0.643","-0.036","9.791","sit down","1"
"2087596767300368","3","-0.638","-0.063","9.831","sit down","1"
"2087596787296998","3","-0.533","-0.058","9.831","sit down","1"
"2087596807293604","3","-0.51","-0.075","9.853","sit down","1"
"2087596827290455","3","-0.554","-0.065","9.87","sit down","1"
"2087596847286839","3","-0.51","-0.063","9.855","sit down","1"
"2087596867283680","3","-0.501","-0.087","9.913","sit down","1"
"2087596887280282","3","-0.526","-0.082","9.896","sit down","1"
"2087596907276878","3","-0.497","-0.087","9.949","sit down","1"
"2087596927273570","3","-0.521","-0.07","9.927","sit down","1"
"2087596947270180","3","-0.578","-0.051","9.934","sit down","1"
"2087596967266806","3","-0.626","-0.022","9.817","sit down","1"
"2087596987263652","3","-0.626","-0.024","9.788","sit down","1"
"2087597007260046","3","-0.612","-0.034","9.843","sit down","1"
"2087597027256873","3","-0.585","-0.051","9.874","sit down","1"
"2087597047253267","3","-0.619","-0.051","9.831","sit down","1"
"2087597067250127","3","-0.693","-0.024","9.795","sit down","1"
"2087597087246772","3","-0.667","-0.043","9.85","sit down","1"
"2087597107243382","3","-0.653","-0.01","9.783","sit down","1"
"2087597127240070","3","-0.672","-0.031","9.788","sit down","1"
"2087597147236680","3","-0.677","-0.022","9.812","sit down","1"
"2087597167233296","3","-0.605","-0.034","9.826","sit down","1"
"2087597187229897","3","-0.605","-0.034","9.848","sit down","1"
"2087597207226526","3","-0.614","-0.048","9.867","sit down","1"
"2087597227223359","3","-0.585","-0.039","9.853","sit down","1"
"2087597247219743","3","-0.614","-0.036","9.831","sit down","1"
"2087597267216598","3","-0.6","-0.039","9.87","sit down","1"
"2087597287213190","3","-0.595","-0.041","9.858","sit down","1"
"2087597307209805","3","-0.624","-0.041","9.798","sit down","1"
"2087597327206484","3","-0.624","-0.046","9.826","sit down","1"
"2087597347203104","3","-0.629","-0.055","9.817","sit down","1"
"2087597367199700","3","-0.621","-0.041","9.85","sit down","1"
"2087597387196532","3","-0.607","-0.039","9.848","sit down","1"
"2087597407192916","3","-0.631","-0.046","9.867","sit down","1"
"2087597427189537","3","-0.643","-0.043","9.848","sit down","1"
"2087597447186368","3","-0.614","-0.036","9.87","sit down","1"
"2087597467182983","3","-0.636","-0.046","9.843","sit down","1"
"2087597487179695","3","-0.631","-0.048","9.862","sit down","1"
"2087597507176315","3","-0.621","-0.036","9.853","sit down","1"
"2087597527172922","3","-0.602","-0.053","9.843","sit down","1"
"2087597547169532","3","-0.609","-0.058","9.879","sit down","1"
"2087597567166143","3","-0.621","-0.043","9.834","sit down","1"
"2087597587162739","3","-0.614","-0.051","9.822","sit down","1"
"2087597607159613","3","-0.609","-0.034","9.836","sit down","1"
"2087597627156244","3","-0.605","-0.041","9.86","sit down","1"
"2087597647152859","3","-0.612","-0.046","9.836","sit down","1"
"2087597667149551","3","-0.633","-0.041","9.836","sit down","1"
"2087597687146118","3","-0.621","-0.043","9.848","sit down","1"
"2087597707142763","3","-0.621","-0.051","9.872","sit down","1"
"2087597727139432","3","-0.636","-0.048","9.841","sit down","1"
"2087597747136037","3","-0.636","-0.043","9.862","sit down","1"
"2087597767132672","3","-0.621","-0.046","9.867","sit down","1"
"2087597787129518","3","-0.638","-0.046","9.841","sit down","1"
"2087597807125874","3","-0.641","-0.046","9.822","sit down","1"
"2087597827122485","3","-0.621","-0.051","9.817","sit down","1"
"2087597847119350","3","-0.612","-0.048","9.85","sit down","1"
"2087597867115985","3","-0.614","-0.046","9.858","sit down","1"
"2087597887112711","3","-0.636","-0.055","9.877","sit down","1"
"2087597907109340","3","-0.631","-0.048","9.841","sit down","1"
"2087597927105956","3","-0.617","-0.046","9.848","sit down","1"
"2087597947102797","3","-0.624","-0.034","9.87","sit down","1"
"2087597967099197","3","-0.621","-0.048","9.87","sit down","1"
"2087597987095807","3","-0.612","-0.051","9.838","sit down","1"
"2087598007092643","3","-0.624","-0.053","9.86","sit down","1"
"2087598027089244","3","-0.607","-0.039","9.872","sit down","1"
"2087598047085960","3","-0.643","-0.051","9.843","sit down","1"
"2087598067082579","3","-0.643","-0.043","9.824","sit down","1"
"2087598087079210","3","-0.614","-0.024","9.846","sit down","1"
"2087598107075834","3","-0.6","-0.036","9.843","sit down","1"
"2087598127072445","3","-0.626","-0.051","9.86","sit down","1"
"2087598147069060","3","-0.631","-0.043","9.824","sit down","1"
"2087598167065877","3","-0.597","-0.041","9.855","sit down","1"
"2087598187062465","3","-0.629","-0.055","9.853","sit down","1"
"2087598207059041","3","-0.631","-0.043","9.853","sit down","1"
"2087598227055729","3","-0.626","-0.031","9.831","sit down","1"
"2087598247052344","3","-0.619","-0.039","9.858","sit down","1"
"2087598267048945","3","-0.609","-0.048","9.86","sit down","1"
"2087598287045580","3","-0.617","-0.046","9.858","sit down","1"
"2087598307042214","3","-0.629","-0.043","9.829","sit down","1"
"2087598327039061","3","-0.619","-0.051","9.834","sit down","1"
"2087598347035691","3","-0.609","-0.039","9.884","sit down","1"
"2087598367032047","3","-0.621","-0.048","9.865","sit down","1"
"2087598387028956","3","-0.629","-0.036","9.85","sit down","1"
"2087598407025552","3","-0.638","-0.051","9.812","sit down","1"
"2087598427022081","3","-0.605","-0.048","9.882","sit down","1"
"2087598447018773","3","-0.614","-0.055","9.87","sit down","1"
"2087598467015388","3","-0.621","-0.048","9.87","sit down","1"
"2087598487012028","3","-0.633","-0.048","9.841","sit down","1"
"2087598507008888","3","-0.624","-0.046","9.86","sit down","1"
"2087598527005273","3","-0.612","-0.036","9.838","sit down","1"
"2087598547001888","3","-0.607","-0.043","9.838","sit down","1"
"2087598566998753","3","-0.617","-0.048","9.848","sit down","1"
"2087598586995365","3","-0.621","-0.055","9.838","sit down","1"
"2087598606992028","3","-0.621","-0.051","9.853","sit down","1"
"2087598626988629","3","-0.621","-0.051","9.836","lay down","1"
"2087598646985235","3","-0.617","-0.046","9.836","lay down","1"
"2087598666982090","3","-0.643","-0.043","9.841","lay down","1"
"2087598686978494","3","-0.626","-0.051","9.87","lay down","1"
"2087598706975129","3","-0.629","-0.034","9.829","lay down","1"
"2087598726971980","3","-0.619","-0.036","9.838","lay down","1"
"2087598746968590","3","-0.621","-0.043","9.848","lay down","1"
"2087598766965282","3","-0.619","-0.041","9.853","lay down","1"
"2087598786961879","3","-0.629","-0.048","9.838","lay down","1"
"2087598806958475","3","-0.631","-0.048","9.836","lay down","1"
"2087598826955326","3","-0.614","-0.051","9.817","lay down","1"
"2087598846951715","3","-0.605","-0.051","9.848","lay down","1"
"2087598866948331","3","-0.607","-0.046","9.858","lay down","1"
"2087598886945148","3","-0.657","-0.048","9.841","lay down","1"
"2087598906941778","3","-0.655","-0.055","9.8","lay down","1"
"2087598926938465","3","-0.612","-0.06","9.838","lay down","1"
"2087598946935076","3","-0.595","-0.063","9.896","lay down","1"
"2087598966931600","3","-0.631","-0.053","9.862","lay down","1"
"2087598986928499","3","-0.672","-0.06","9.803","lay down","1"
"2087599006924882","3","-0.633","-0.055","9.8","lay down","1"
"2087599026921724","3","-0.585","-0.058","9.87","lay down","1"
"2087599046918326","3","-0.638","-0.024","9.862","lay down","1"
"2087599066914922","3","-0.655","-0.027","9.826","lay down","1"
"2087599086911538","3","-0.674","-0.008","9.87","lay down","1"
"2087599106908167","3","-0.633","-0.027","9.822","lay down","1"
"2087599126904802","3","-0.629","-0.031","9.891","lay down","1"
"2087599146901475","3","-0.602","-0.017","9.874","lay down","1"
"2087599166898090","3","-0.585","-0.012","9.87","lay down","1"
"2087599186894942","3","-0.557","-0.015","9.894","lay down","1"
"2087599206891326","3","-0.6","-0.012","9.879","lay down","1"
"2087599226888167","3","-0.665","0.024","9.862","lay down","1"
"2087599246884788","3","-0.619","0.009","9.807","lay down","1"
"2087599266881388","3","-0.55","-0.039","9.846","lay down","1"
"2087599286878086","3","-0.554","-0.027","9.937","lay down","1"
"2087599306874730","3","-0.609","-0.06","9.944","lay down","1"
"2087599326871355","3","-0.607","-0.024","9.879","lay down","1"
"2087599346867985","3","-0.547","-0.019","9.774","lay down","1"
"2087599366864609","3","-0.547","-0.06","9.989","lay down","1"
"2087599386861485","3","-0.607","-0.041","9.941","lay down","1"
"2087599406858114","3","-0.59","-0.058","9.75","lay down","1"
"2087599426854729","3","-0.569","-0.041","9.898","lay down","1"
"2087599446851403","3","-0.677","-0.063","9.975","lay down","1"
"2087599466847955","3","-0.681","-0.063","9.791","lay down","1"
"2087599486844663","3","-0.626","-0.017","9.829","lay down","1"
"2087599506841273","3","-0.631","0.002","9.894","lay down","1"
"2087599526837889","3","-0.684","-0.048","9.776","lay down","1"
"2087599546834744","3","-0.71","-0.06","9.757","lay down","1"
"2087599566831369","3","-0.538","0.002","9.826","lay down","1"
"2087599586828014","3","-0.505","-0.137","9.87","lay down","1"
"2087599606824725","3","-0.99","-0.139","9.949","lay down","1"
"2087599626821253","3","-1.211","-0.07","9.848","lay down","1"
"2087599646817840","3","-0.768","-0.216","10.049","lay down","1"
"2087599666814518","3","-0.459","-0.249","10.049","lay down","1"
"2087599686811158","3","-0.621","-0.173","9.848","lay down","1"
"2087599706807768","3","-0.885","-0.182","9.664","lay down","1"
"2087599726804604","3","-0.959","-0.017","9.774","lay down","1"
"2087599746801211","3","-0.973","0.055","9.937","lay down","1"
"2087599766797826","3","-1.153","-0.099","9.874","lay down","1"
"2087599786794432","3","-1.127","-0.053","9.527","lay down","1"
"2087599806791033","3","-0.782","-0.017","9.494","lay down","1"
"2087599826787633","3","-0.758","-0.008","9.767","lay down","1"
"2087599846784336","3","-1.031","0.055","9.946","lay down","1"
"2087599866780859","3","-1.093","0.107","9.889","lay down","1"
"2087599886777787","3","-0.906","0.076","9.587","lay down","1"
"2087599906774403","3","-0.732","-0.022","9.726","lay down","1"
"2087599926771008","3","-0.71","0.002","10.037","lay down","1"
"2087599946767599","3","-0.763","0.036","9.87","lay down","1"
"2087599966764229","3","-0.832","-0.108","9.757","lay down","1"
"2087599986760830","3","-0.787","-0.149","9.771","lay down","1"
"2087600006757503","3","-0.672","-0.223","9.841","lay down","1"
"2087600026754113","3","-0.88","-0.158","9.831","lay down","1"
"2087600046750960","3","-1.055","-0.031","9.597","lay down","1"
"2087600066747575","3","-0.964","-0.12","9.563","lay down","1"
"2087600086744209","3","-1.065","-0.168","9.63","lay down","1"
"2087600106740849","3","-1.158","0.141","9.563","lay down","1"
"2087600126737464","3","-1.167","-0.058","9.52","lay down","1"
"2087600146734109","3","-1.074","-0.084","9.659","lay down","1"
"2087600166730787","3","-0.995","0.004","9.704","lay down","1"
"2087600186727393","3","-0.945","-0.175","9.85","lay down","1"
"2087600206724234","3","-0.966","-0.276","9.587","lay down","1"
"2087600226720864","3","-1.076","-0.391","9.498","lay down","1"
"2087600246717234","3","-0.732","-0.487","10.495","lay down","1"
"2087600266714095","3","-0.811","-1.003","9.506","lay down","1"
"2087600286710745","3","-1.002","0.752","9.594","lay down","1"
"2087600306707374","3","-1.011","2.672","11.632","lay down","1"
"2087600326704071","3","0.88","-1.1","10.875","lay down","1"
"2087600346700692","3","0.485","-0.772","10.049","lay down","1"
"2087600366697287","3","-1.011","-0.209","9.043","lay down","1"
"2087600386694133","3","-1.172","-0.053","10.016","lay down","1"
"2087600406690504","3","-1.455","-0.075","9.458","lay down","1"
"2087600426687109","3","-1.021","-0.015","9.58","lay down","1"
"2087600446683951","3","-0.734","0.098","9.905","lay down","1"
"2087600466680557","3","-1.002","0.052","9.541","lay down","1"
"2087600486677206","3","-1.599","-0.295","9.707","lay down","1"
"2087600506673908","3","-1.613","-0.156","9.247","lay down","1"
"2087600526670446","3","-1.175","0.189","9.565","lay down","1"
"2087600546667038","3","-0.451","0.11","10.056","lay down","1"
"2087600566663739","3","-0.518","-0.055","10.217","lay down","1"
"2087600586660330","3","-0.823","0.182","9.654","lay down","1"
"2087600606657157","3","-0.665","0.098","10.179","lay down","1"
"2087600626653772","3","-0.859","-0.008","9.635","lay down","1"
"2087600646650398","3","-1.079","-0.015","9.745","lay down","1"
"2087600666647104","3","-1.153","-0.036","9.735","lay down","1"
"2087600686643657","3","-1.165","-0.051","9.652","lay down","1"
"2087600706640364","3","-1.199","-0.019","9.786","lay down","1"
"2087600726636979","3","-1.189","-0.017","9.731","lay down","1"
"2087600746633590","3","-1.074","0.0","9.747","lay down","1"
"2087600766630436","3","-0.835","0.016","9.858","lay down","1"
"2087600786627036","3","-0.677","0.019","9.941","lay down","1"
"2087600806623633","3","-0.892","-0.027","9.872","lay down","1"
"2087600826620330","3","-1.108","-0.297","9.757","lay down","1"
"2087600846616869","3","-0.48","-0.556","9.506","lay down","1"
"2087600866613546","3","0.581","-0.194","10.919","lay down","1"
"2087600886610195","3","0.588","1.941","11.295","lay down","1"
"2087600906606825","3","-0.77","-0.556","9.412","lay down","1"
"2087600926603662","3","-0.698","-0.154","9.723","lay down","1"
"2087600946600263","3","-0.377","0.117","10.076","lay down","1"
"2087600966596859","3","-1.311","-0.633","10.001","lay down","1"
"2087600986593551","3","-0.904","-0.132","8.182","lay down","1"
"2087601006590104","3","-1.139","0.105","9.673","lay down","1"
"2087601026586811","3","-1.761","-0.005","10.032","lay down","1"
"2087601046583431","3","-1.378","0.182","9.101","lay down","1"
"2087601066580051","3","-0.957","-0.048","9.788","lay down","1"
"2087601086576700","3","-1.247","-0.101","9.467","lay down","1"
"2087601106573561","3","-1.067","0.27","9.518","lay down","1"
"2087601126570167","3","-0.997","0.143","10.25","lay down","1"
"2087601146566552","3","-0.969","0.033","9.848","lay down","1"
"2087601166563475","3","-0.576","0.064","10.138","lay down","1"
"2087601186560085","3","-0.53","-0.048","10.298","lay down","1"
"2087601206556595","3","-0.55","-0.091","10.006","lay down","1"
"2087601226553302","3","-0.679","-0.108","10.116","lay down","1"
"2087601246549913","3","-0.763","-0.111","9.91","lay down","1"
"2087601266546557","3","-0.744","-0.065","9.767","lay down","1"
"2087601286543432","3","-0.945","-0.029","9.745","lay down","1"
"2087601306539831","3","-1.081","-0.017","9.716","lay down","1"
"2087601326536677","3","-1.005","0.043","9.664","lay down","1"
"2087601346533369","3","-1.007","0.067","9.683","lay down","1"
"2087601366529913","3","-1.005","0.072","9.707","lay down","1"
"2087601386526581","3","-0.94","0.05","9.745","lay down","1"
"2087601406523163","3","-0.914","0.04","9.8","lay down","1"
"2087601426519778","3","-0.887","0.028","9.81","lay down","1"
"2087601446516624","3","-0.827","0.009","9.838","lay down","1"
"2087601466513004","3","-0.849","0.0","9.858","lay down","1"
"2087601486509850","3","-0.844","-0.01","9.819","lay down","1"
"2087601506506572","3","-0.859","-0.024","9.814","lay down","1"
"2087601526503110","3","-0.851","-0.027","9.838","lay down","1"
"2087601546499803","3","-0.863","-0.041","9.836","lay down","1"
"2087601566496403","3","-0.866","-0.031","9.829","lay down","1"
"2087601586493009","3","-0.835","-0.022","9.858","lay down","1"
"2087601606489827","3","-0.842","-0.019","9.85","lay down","1"
"2087601626486182","3","-0.844","-0.01","9.872","lay down","1"
"2087601646482769","3","-0.861","0.012","9.865","lay down","1"
"2087601666479605","3","-0.887","0.014","9.829","lay down","1"
"2087601686476225","3","-0.916","0.026","9.814","lay down","1"
"2087601706472865","3","-0.93","0.019","9.783","lay down","1"
"2087601726469576","3","-0.95","0.016","9.762","lay down","1"
"2087601746466168","3","-0.947","0.012","9.762","lay down","1"
"2087601766462783","3","-0.938","0.009","9.762","lay down","1"
"2087601786459388","3","-0.935","-0.003","9.779","lay down","1"
"2087601806456004","3","-0.897","-0.01","9.803","lay down","1"
"2087601826452619","3","-0.861","-0.015","9.824","lay down","1"
"2087601846449455","3","-0.835","-0.012","9.848","lay down","1"
"2087601866446046","3","-0.83","-0.005","9.862","lay down","1"
"2087601886442767","3","-0.83","-0.005","9.877","lay down","1"
"2087601906439393","3","-0.808","-0.019","9.872","lay down","1"
"2087601926436008","3","-0.839","-0.017","9.848","lay down","1"
"2087601946432638","3","-0.854","-0.003","9.858","lay down","1"
"2087601966429272","3","-0.882","0.016","9.812","lay down","1"
"2087601986425902","3","-0.899","0.004","9.805","lay down","1"
"2087602006422729","3","-0.921","0.009","9.786","lay down","1"
"2087602026419339","3","-0.938","0.012","9.776","lay down","1"
"2087602046416003","3","-0.945","0.007","9.779","lay down","1"
"2087602066412561","3","-0.926","0.014","9.786","lay down","1"
"2087602086409258","3","-0.902","0.002","9.8","lay down","1"
"2087602106405897","3","-0.897","0.002","9.822","lay down","1"
"2087602126402503","3","-0.882","-0.005","9.819","lay down","1"
"2087602146399109","3","-0.871","-0.01","9.819","lay down","1"
"2087602166395960","3","-0.866","-0.019","9.846","lay down","1"
"2087602186392600","3","-0.851","-0.008","9.855","lay down","1"
"2087602206389206","3","-0.847","-0.008","9.846","lay down","1"
"2087602226385812","3","-0.847","0.007","9.831","lay down","1"
"2087602246382513","3","-0.861","-0.005","9.829","lay down","1"
"2087602266379081","3","-0.885","-0.003","9.831","lay down","1"
"2087602286375691","3","-0.89","0.0","9.8","lay down","1"
"2087602306372293","3","-0.906","-0.003","9.8","lay down","1"
"2087602326369153","3","-0.906","0.002","9.805","lay down","1"
"2087602346365768","3","-0.909","0.016","9.805","lay down","1"
"2087602366362158","3","-0.914","0.004","9.814","lay down","1"
"2087602386359018","3","-0.899","-0.005","9.81","lay down","1"
"2087602406355706","3","-0.892","0.007","9.805","lay down","1"
"2087602426352244","3","-0.906","-0.003","9.817","lay down","1"
"2087602446348922","3","-0.899","-0.008","9.812","lay down","1"
"2087602466345528","3","-0.871","0.002","9.829","lay down","1"
"2087602486342172","3","-0.863","-0.01","9.838","lay down","1"
"2087602506339003","3","-0.868","-0.017","9.824","lay down","1"
"2087602526335388","3","-0.878","-0.017","9.834","lay down","1"
"2087602546332013","3","-0.885","-0.012","9.829","lay down","1"
"2087602566328830","3","-0.885","0.009","9.812","lay down","1"
"2087602586325484","3","-0.899","-0.003","9.824","lay down","1"
"2087602606322177","3","-0.878","0.0","9.814","lay down","1"
"2087602626318796","3","-0.887","-0.008","9.814","roll side","1"
"2087602646315397","3","-0.899","-0.003","9.822","roll side","1"
"2087602666312013","3","-0.887","0.019","9.805","roll side","1"
"2087602686308633","3","-0.899","0.0","9.814","roll side","1"
"2087602706305249","3","-0.892","-0.003","9.807","roll side","1"
"2087602726302104","3","-0.894","0.002","9.819","roll side","1"
"2087602746298700","3","-0.871","-0.012","9.812","roll side","1"
"2087602766295417","3","-0.878","-0.008","9.824","roll side","1"
"2087602786292037","3","-0.89","-0.003","9.824","roll side","1"
"2087602806288643","3","-0.868","-0.01","9.838","roll side","1"
"2087602826285273","3","-0.871","-0.005","9.848","roll side","1"
"2087602846281883","3","-0.868","-0.015","9.824","roll side","1"
"2087602866278485","3","-0.875","0.014","9.826","roll side","1"
"2087602886275360","3","-0.882","0.019","9.814","roll side","1"
"2087602906271985","3","-0.892","0.0","9.817","roll side","1"
"2087602926268677","3","-0.871","-0.003","9.812","roll side","1"
"2087602946265206","3","-0.885","0.007","9.819","roll side","1"
"2087602966261821","3","-0.978","0.043","9.788","roll side","1"
"2087602986258518","3","-1.158","0.076","9.644","roll side","1"
"2087603006255149","3","-1.179","0.131","9.697","roll side","1"
"2087603026251764","3","-1.146","0.218","9.779","roll side","1"
"2087603046248600","3","-1.213","0.182","9.618","roll side","1"
"2087603066244999","3","-1.34","0.213","9.635","roll side","1"
"2087603086241600","3","-1.46","0.342","9.676","roll side","1"
"2087603106238452","3","-1.086","0.22","9.846","roll side","1"
"2087603126235062","3","-0.593","-0.096","10.066","roll side","1"
"2087603146231677","3","-0.176","-0.278","10.042","roll side","1"
"2087603166228369","3","0.226","-0.482","10.006","roll side","1"
"2087603186224985","3","0.236","-0.685","10.2","roll side","1"
"2087603206221605","3","-0.095","-0.446","10.049","roll side","1"
"2087603226218220","3","-0.411","-0.209","9.958","roll side","1"
"2087603246214835","3","-0.617","-0.261","9.92","roll side","1"
"2087603266211447","3","-0.741","-0.221","9.858","roll side","1"
"2087603286208292","3","-0.684","-0.249","9.793","roll side","1"
"2087603306204923","3","-0.803","0.033","9.407","roll side","1"
"2087603326201514","3","-1.261","0.292","9.513","roll side","1"
"2087603346198129","3","-1.156","0.055","9.656","roll side","1"
"2087603366194802","3","-0.837","-0.091","9.819","roll side","1"
"2087603386191417","3","-0.76","-0.034","9.716","roll side","1"
"2087603406188038","3","-0.842","-0.067","9.803","roll side","1"
"2087603426184653","3","-0.899","-0.108","9.889","roll side","1"
"2087603446181470","3","-0.665","-0.084","9.994","roll side","1"
"2087603466177830","3","-0.406","-0.154","10.078","roll side","1"
"2087603486174686","3","-0.315","-0.192","10.15","roll side","1"
"2087603506171302","3","-0.217","-0.17","10.147","roll side","1"
"2087603526167907","3","-0.193","-0.173","10.037","roll side","1"
"2087603546164599","3","-0.202","-0.173","9.482","roll side","1"
"2087603566161196","3","-0.252","-0.441","10.052","roll side","1"
"2087603586157825","3","-0.296","-0.036","9.958","roll side","1"
"2087603606154441","3","-0.454","0.277","9.728","roll side","1"
"2087603626151042","3","-0.408","0.045","9.987","roll side","1"
"2087603646147892","3","-0.609","-0.259","9.831","roll side","1"
"2087603666144494","3","-0.724","-0.122","9.685","roll side","1"
"2087603686141123","3","-0.645","-0.034","9.74","roll side","1"
"2087603706137734","3","-0.784","0.033","9.733","roll side","1"
"2087603726134436","3","-0.935","0.115","9.704","roll side","1"
"2087603746131036","3","-0.976","0.177","9.8","roll side","1"
"2087603766127575","3","-1.093","0.177","9.838","roll side","1"
"2087603786124283","3","-1.093","-0.18","9.656","roll side","1"
"2087603806120908","3","-0.801","-0.24","9.922","roll side","1"
"2087603826117538","3","-0.468","0.996","10.068","roll side","1"
"2087603846114139","3","-0.334","0.299","9.544","roll side","1"
"2087603866110740","3","-0.152","-0.067","10.282","roll side","1"
"2087603886107610","3","-0.2","-0.075","10.128","roll side","1"
"2087603906104216","3","-0.698","0.103","9.613","roll side","1"
"2087603926100841","3","-0.724","0.155","10.128","roll side","1"
"2087603946097528","3","-0.643","0.012","10.219","roll side","1"
"2087603966094076","3","-0.82","0.292","9.8","roll side","1"
"2087603986090768","3","-0.911","0.711","9.956","roll side","1"
"2087604006087384","3","-0.765","1.076","9.731","roll side","1"
"2087604026084009","3","-0.521","-0.472","7.992","roll side","1"
"2087604046080840","3","-1.661","-1.849","10.092","roll side","1"
"2087604066077466","3","-1.457","0.242","10.801","roll side","1"
"2087604086074086","3","-1.309","0.543","8.845","roll side","1"
"2087604106070711","3","-0.981","-0.024","10.207","roll side","1"
"2087604126067321","3","-0.76","0.131","9.87","roll side","1"
"2087604146063927","3","-0.887","0.146","9.788","roll side","1"
"2087604166060629","3","-0.789","0.002","9.771","roll side","1"
"2087604186057259","3","-0.794","0.0","9.786","roll side","1"
"2087604206054105","3","-1.005","-0.01","9.908","roll side","1"
"2087604226050721","3","-0.923","0.043","9.882","roll side","1"
"2087604246047081","3","-0.818","0.06","9.946","roll side","1"
"2087604266043927","3","-0.782","0.048","9.91","roll side","1"
"2087604286040538","3","-0.677","0.055","9.944","roll side","1"
"2087604306037154","3","-0.665","0.091","9.896","roll side","1"
"2087604326033845","3","-0.727","0.055","9.858","roll side","1"
"2087604346030383","3","-0.77","0.057","9.8","roll side","1"
"2087604366026995","3","-0.803","0.072","9.793","roll side","1"
"2087604386023672","3","-0.885","0.048","9.771","roll side","1"
"2087604406020307","3","-0.959","0.033","9.771","roll side","1"
"2087604426016907","3","-0.973","0.036","9.759","roll side","1"
"2087604446013743","3","-0.957","0.067","9.75","roll side","1"
"2087604466010364","3","-0.954","0.05","9.767","roll side","1"
"2087604486006748","3","-0.945","0.045","9.786","roll side","1"
"2087604506003585","3","-0.906","0.057","9.8","roll side","1"
"2087604526000200","3","-0.875","0.057","9.819","roll side","1"
"2087604545996816","3","-0.789","0.074","9.831","roll side","1"
"2087604565993436","3","-0.753","0.055","9.872","roll side","1"
"2087604585990147","3","-0.732","0.057","9.903","roll side","1"
"2087604605986763","3","-0.71","0.081","9.843","roll side","1"
"2087604625983392","3","-0.698","0.057","9.882","roll side","1"
"2087604645980023","3","-0.717","0.04","9.853","roll side","1"
"2087604665976874","3","-0.744","0.016","9.867","roll side","1"
"2087604685973272","3","-0.765","0.033","9.896","roll side","1"
"2087604705970138","3","-0.772","0.045","9.85","roll side","1"
"2087604725966758","3","-0.799","0.064","9.841","roll side","1"
"2087604745963374","3","-0.796","0.043","9.805","roll side","1"
"2087604765959989","3","-0.806","0.093","9.817","roll side","1"
"2087604785956676","3","-0.882","0.112","9.836","roll side","1"
"2087604805953287","3","-0.916","0.064","9.836","roll side","1"
"2087604825949897","3","-0.882","0.043","9.757","roll side","1"
"2087604845946523","3","-0.88","0.05","9.733","roll side","1"
"2087604865943123","3","-0.882","0.088","9.755","roll side","1"
"2087604885940008","3","-0.906","0.064","9.755","roll side","1"
"2087604905936378","3","-0.93","0.009","9.759","roll side","1"
"2087604925933229","3","-0.911","-0.017","9.829","roll side","1"
"2087604945929835","3","-0.916","-0.01","9.793","roll side","1"
"2087604965926431","3","-0.952","0.024","9.829","roll side","1"
"2087604985923113","3","-0.918","0.045","9.814","roll side","1"
"2087605005919705","3","-0.856","0.05","9.843","roll side","1"
"2087605025916320","3","-0.878","0.067","9.874","roll side","1"
"2087605045912936","3","-0.839","0.122","9.834","roll side","1"
"2087605065909551","3","-0.772","0.062","9.891","roll side","1"
"2087605085906185","3","-0.7","0.024","9.87","roll side","1"
"2087605105903032","3","-0.736","0.031","9.848","roll side","1"
"2087605125899666","3","-0.727","0.079","9.874","roll side","1"
"2087605145896051","3","-0.672","0.05","9.826","roll side","1"
"2087605165892888","3","-0.708","0.062","9.793","roll side","1"
"2087605185889522","3","-0.801","0.151","9.86","roll side","1"
"2087605205886123","3","-0.756","0.153","9.982","roll side","1"
"2087605225882815","3","-0.629","0.119","9.901","roll side","1"
"2087605245879335","3","-0.645","0.127","9.85","roll side","1"
"2087605265875945","3","-0.827","0.134","9.929","roll side","1"
"2087605285872637","3","-0.839","0.091","9.846","roll side","1"
"2087605305869248","3","-0.746","0.062","9.719","roll side","1"
"2087605325866114","3","-0.837","0.081","9.666","roll side","1"
"2087605345862730","3","-0.969","0.067","9.755","roll side","1"
"2087605365859349","3","-0.904","0.057","9.762","roll side","1"
"2087605385855964","3","-0.866","0.004","9.774","roll side","1"
"2087605405852571","3","-0.89","0.016","9.791","roll side","1"
"2087605425849186","3","-0.756","-0.031","9.865","roll side","1"
"2087605445845787","3","-0.669","-0.003","9.867","roll side","1"
"2087605465842407","3","-0.65","0.038","9.898","roll side","1"
"2087605485839109","3","-0.641","0.021","9.92","roll side","1"
"2087605505835700","3","-0.65","0.045","9.886","roll side","1"
"2087605525832301","3","-0.722","0.055","9.877","roll side","1"
"2087605545829138","3","-0.722","0.074","9.87","roll side","1"
"2087605565825537","3","-0.72","0.086","9.841","roll side","1"
"2087605585822153","3","-0.734","0.093","9.807","roll side","1"
"2087605605819037","3","-0.741","0.091","9.803","roll side","1"
"2087605625815647","3","-0.796","0.112","9.824","roll side","1"
"2087605645812273","3","-0.835","0.117","9.803","roll side","1"
"2087605665808888","3","-0.837","0.093","9.81","roll side","1"
"2087605685805489","3","-0.837","0.091","9.817","roll side","1"
"2087605705802109","3","-0.854","0.091","9.826","roll side","1"
"2087605725798792","3","-0.803","0.083","9.822","roll side","1"
"2087605745795427","3","-0.76","0.043","9.817","roll side","1"
"2087605765792046","3","-0.772","0.05","9.838","roll side","1"
"2087605785788667","3","-0.775","0.052","9.831","roll side","1"
"2087605805785277","3","-0.753","0.045","9.836","roll side","1"
"2087605825781917","3","-0.779","0.045","9.824","roll side","1"
"2087605845778768","3","-0.803","0.05","9.846","roll side","1"
"2087605865775402","3","-0.811","0.069","9.858","roll side","1"
"2087605885772009","3","-0.796","0.064","9.836","roll side","1"
"2087605905768624","3","-0.794","0.11","9.85","roll side","1"
"2087605925765219","3","-0.791","0.098","9.884","roll side","1"
"2087605945761927","3","-0.722","0.079","9.913","roll side","1"
"2087605965758465","3","-0.641","0.083","9.896","roll side","1"
"2087605985755081","3","-0.66","0.091","9.85","roll side","1"
"2087606005751773","3","-0.7","0.072","9.795","roll side","1"
"2087606025748384","3","-0.758","0.004","9.781","roll side","1"
"2087606045744994","3","-0.768","0.143","9.805","roll side","1"
"2087606065741594","3","-0.861","0.1","9.781","roll side","1"
"2087606085738210","3","-0.791","-0.01","9.846","roll side","1"
"2087606105735051","3","-0.681","-0.003","9.826","roll side","1"
"2087606125731672","3","-0.748","0.036","9.819","roll side","1"
"2087606145728292","3","-0.758","0.033","9.908","roll side","1"
"2087606165724916","3","-0.71","0.05","9.843","roll side","1"
"2087606185721508","3","-0.77","0.052","9.829","roll side","1"
"2087606205718229","3","-0.808","0.079","9.817","roll side","1"
"2087606225714845","3","-0.825","0.091","9.803","roll side","1"
"2087606245711446","3","-0.878","0.105","9.814","roll side","1"
"2087606265708046","3","-0.856","0.1","9.798","roll side","1"
"2087606285704648","3","-0.837","0.083","9.776","roll side","1"
"2087606305701296","3","-0.83","0.1","9.85","roll side","1"
"2087606325698138","3","-0.799","0.079","9.848","roll side","1"
"2087606345694508","3","-0.724","0.067","9.841","roll side","1"
"2087606365691109","3","-0.727","0.069","9.901","roll side","1"
"2087606385687931","3","-0.724","0.088","9.917","roll side","1"
"2087606405684556","3","-0.715","0.064","9.862","roll side","1"
"2087606425680936","3","-0.772","0.052","9.865","roll side","1"
"2087606445677782","3","-0.799","0.069","9.853","roll side","1"
"2087606465674403","3","-0.801","0.067","9.831","roll side","1"
"2087606485670994","3","-0.825","0.067","9.793","roll side","1"
"2087606505667714","3","-0.83","0.074","9.798","roll side","1"
"2087606525664239","3","-0.832","0.062","9.783","roll side","1"
"2087606545660844","3","-0.832","0.067","9.788","roll side","1"
"2087606565657542","3","-0.835","0.067","9.793","roll side","1"
"2087606585654157","3","-0.813","0.069","9.812","roll side","1"
"2087606605651003","3","-0.794","0.069","9.841","roll side","1"
"2087606625647595","3","-0.763","0.079","9.853","roll back","1"
"2087606645643979","3","-0.753","0.074","9.846","roll back","1"
"2087606665640856","3","-0.739","0.074","9.86","roll back","1"
"2087606685637485","3","-0.739","0.064","9.874","roll back","1"
"2087606705634119","3","-0.739","0.055","9.862","roll back","1"
"2087606725630721","3","-0.758","0.069","9.836","roll back","1"
"2087606745627336","3","-0.772","0.083","9.848","roll back","1"
"2087606765624019","3","-0.787","0.072","9.812","roll back","1"
"2087606785620620","3","-0.796","0.074","9.817","roll back","1"
"2087606805617264","3","-0.789","0.069","9.822","roll back","1"
"2087606825613865","3","-0.77","0.069","9.831","roll back","1"
"2087606845610475","3","-0.782","0.079","9.824","roll back","1"
"2087606865607101","3","-0.787","0.081","9.834","roll back","1"
"2087606885603956","3","-0.772","0.062","9.812","roll back","1"
"2087606905600356","3","-0.756","0.062","9.846","roll back","1"
"2087606925597206","3","-0.77","0.052","9.841","roll back","1"
"2087606945593807","3","-0.751","0.05","9.87","roll back","1"
"2087606965590182","3","-0.758","0.079","9.824","roll back","1"
"2087606985587071","3","-0.746","0.079","9.843","roll back","1"
"2087607005583624","3","-0.724","0.062","9.831","roll back","1"
"2087607025580258","3","-0.744","0.069","9.836","roll back","1"
"2087607045576950","3","-0.753","0.062","9.807","roll back","1"
"2087607065573489","3","-0.748","0.062","9.805","roll back","1"
"2087607085570099","3","-0.768","0.083","9.814","roll back","1"
"2087607105566807","3","-0.823","0.069","9.807","roll back","1"
"2087607125563407","3","-0.844","0.05","9.812","roll back","1"
"2087607145560018","3","-0.854","0.069","9.788","roll back","1"
"2087607165556638","3","-0.851","0.079","9.81","roll back","1"
"2087607185553248","3","-0.847","0.052","9.834","roll back","1"
"2087607205549830","3","-0.83","0.06","9.805","roll back","1"
"2087607225546667","3","-0.818","0.062","9.85","roll back","1"
"2087607245543061","3","-0.806","0.062","9.855","roll back","1"
"2087607265539686","3","-0.775","0.067","9.855","roll back","1"
"2087607285536542","3","-0.796","0.076","9.846","roll back","1"
"2087607305533177","3","-0.832","0.088","9.814","roll back","1"
"2087607325529792","3","-0.825","0.067","9.793","roll back","1"
"2087607345526403","3","-0.736","0.057","9.81","roll back","1"
"2087607365523018","3","-0.712","0.05","9.817","roll back","1"
"2087607385519710","3","-0.739","0.026","9.858","roll back","1"
"2087607405516239","3","-0.76","0.04","9.836","roll back","1"
"2087607425512840","3","-0.926","0.036","9.793","roll back","1"
"2087607445509542","3","-0.866","0.091","9.719","roll back","1"
"2087607465506152","3","-0.667","-0.005","9.707","roll back","1"
"2087607485502754","3","-0.471","-0.01","9.843","roll back","1"
"2087607505499379","3","-0.461","0.038","9.977","roll back","1"
"2087607525496032","3","-0.497","0.024","9.987","roll back","1"
"2087607545492874","3","-0.686","-0.003","9.987","roll back","1"
"2087607565489475","3","-0.882","-0.055","10.059","roll back","1"
"2087607585486091","3","-1.031","-0.051","9.951","roll back","1"
"2087607605482725","3","-1.096","0.033","9.69","roll back","1"
"2087607625479340","3","-1.239","0.043","9.644","roll back","1"
"2087607645475941","3","-1.441","0.091","9.812","roll back","1"
"2087607665472537","3","-1.611","0.184","9.752","roll back","1"
"2087607685469162","3","-1.438","0.292","9.51","roll back","1"
"2087607705465869","3","-1.311","0.301","9.52","roll back","1"
"2087607725462498","3","-1.735","0.239","9.455","roll back","1"
"2087607745459133","3","-2.169","0.282","9.556","roll back","1"
"2087607765455642","3","-1.833","0.531","9.472","roll back","1"
"2087607785452335","3","-1.373","0.4","9.589","roll back","1"
"2087607805448888","3","-0.7","-0.029","9.858","roll back","1"
"2087607825445513","3","0.248","-0.288","9.889","roll back","1"
"2087607845442201","3","1.035","-0.412","10.076","roll back","1"
"2087607865438811","3","1.33","-0.606","10.212","roll back","1"
"2087607885435653","3","1.809","-1.425","10.492","roll back","1"
"2087607905432273","3","1.353","-2.096","11.058","roll back","1"
"2087607925428643","3","-0.104","-0.652","10.248","roll back","1"
"2087607945425514","3","-0.382","0.198","9.644","roll back","1"
"2087607965421913","3","-0.463","-0.472","10.222","roll back","1"
"2087607985418528","3","-0.597","-0.041","10.099","roll back","1"
"2087608005415369","3","-0.782","0.179","9.561","roll back","1"
"2087608025411971","3","-0.873","-0.393","9.817","roll back","1"
"2087608045408663","3","-0.859","-0.175","9.867","roll back","1"
"2087608065405250","3","-1.057","-0.12","9.249","roll back","1"
"2087608085401831","3","-1.697","0.469","9.194","roll back","1"
"2087608105398542","3","-1.864","1.006","9.589","roll back","1"
"2087608125395091","3","-1.402","0.182","9.704","roll back","1"
"2087608145391773","3","-1.062","-0.19","9.841","roll back","1"
"2087608165388394","3","-1.158","-0.199","9.841","roll back","1"
"2087608185385014","3","-1.232","-0.099","9.719","roll back","1"
"2087608205381898","3","-0.832","0.335","9.654","roll back","1"
"2087608225378269","3","-0.815","0.234","9.86","roll back","1"
"2087608245374879","3","-0.899","-0.024","9.745","roll back","1"
"2087608265371701","3","-0.734","-0.211","9.879","roll back","1"
"2087608285368061","3","-0.777","-0.266","10.09","roll back","1"
"2087608305364677","3","-0.684","-0.118","9.898","roll back","1"
"2087608325361532","3","-0.348","-0.194","10.04","roll back","1"
"2087608345358147","3","-0.13","-0.122","10.262","roll back","1"
"2087608365354527","3","-0.26","0.208","10.516","roll back","1"
"2087608385351383","3","-0.72","-0.063","10.344","roll back","1"
"2087608405347970","3","-1.223","-0.17","9.841","roll back","1"
"2087608425344580","3","-1.455","0.342","9.036","roll back","1"
"2087608445341190","3","-1.172","0.16","8.13","roll back","1"
"2087608465337787","3","-0.583","-0.774","7.839","roll back","1"
"2087608485334393","3","-0.861","0.342","11.434","roll back","1"
"2087608505331100","3","-1.73","1.323","11.845","roll back","1"
"2087608525327614","3","-1.931","-0.218","10.188","roll back","1"
"2087608545324235","3","-0.348","-0.666","8.466","roll back","1"
"2087608565320931","3","0.004","0.06","8.231","roll back","1"
"2087608585317557","3","-1.347","0.34","10.004","roll back","1"
"2087608605314202","3","-2.092","0.306","11.034","roll back","1"
"2087608625310831","3","-1.122","-0.127","9.805","roll back","1"
"2087608645307452","3","-0.315","-0.151","9.213","roll back","1"
"2087608665304081","3","-0.777","0.11","9.58","roll back","1"
"2087608685300702","3","-1.361","0.244","10.399","roll back","1"
"2087608705297322","3","-1.22","0.028","10.262","roll back","1"
"2087608725294168","3","-0.854","-0.036","9.664","roll back","1"
"2087608745290558","3","-1.021","0.009","9.795","roll back","1"
"2087608765287389","3","-1.194","0.019","10.147","roll back","1"
"2087608785284020","3","-0.928","0.043","10.064","roll back","1"
"2087608805280625","3","-0.923","0.095","9.716","roll back","1"
"2087608825277240","3","-1.014","0.072","9.335","roll back","1"
"2087608845273846","3","-0.844","0.093","9.841","roll back","1"
"2087608865270461","3","-1.158","0.072","10.147","roll back","1"
"2087608885267077","3","-1.067","-0.146","8.979","roll back","1"
"2087608905263686","3","-0.768","0.146","9.352","roll back","1"
"2087608925260283","3","-0.95","0.448","10.567","roll back","1"
"2087608945256870","3","-1.52","0.155","10.008","roll back","1"
"2087608965253485","3","-1.431","-0.168","9.807","roll back","1"
"2087608985250154","3","-1.227","0.103","9.556","roll back","1"
"2087609005246769","3","-1.196","0.175","9.604","roll back","1"
"2087609025243394","3","-1.247","0.11","10.145","roll back","1"
"2087609045240024","3","-1.139","0.028","9.877","roll back","1"
"2087609065236630","3","-0.894","-0.043","9.573","roll back","1"
"2087609085233173","3","-0.772","0.129","9.568","roll back","1"
"2087609105229879","3","-1.031","0.131","9.752","roll back","1"
"2087609125226499","3","-1.242","0.002","9.843","roll back","1"
"2087609145223042","3","-1.096","0.083","9.69","roll back","1"
"2087609165219721","3","-1.144","0.141","9.585","roll back","1"
"2087609185216345","3","-1.196","0.158","9.774","roll back","1"
"2087609205212990","3","-1.182","0.11","9.853","roll back","1"
"2087609225209615","3","-1.16","0.067","9.726","roll back","1"
"2087609245206230","3","-1.227","0.103","9.738","roll back","1"
"2087609265202865","3","-1.268","0.122","9.807","roll back","1"
"2087609285199475","3","-1.136","0.107","9.92","roll back","1"
"2087609305196106","3","-1.019","0.055","9.865","roll back","1"
"2087609325192961","3","-1.1","0.057","9.798","roll back","1"
"2087609345189576","3","-1.122","0.098","9.755","roll back","1"
"2087609365186173","3","-1.011","0.024","9.723","roll back","1"
"2087609385182783","3","-1.167","0.064","9.997","roll back","1"
"2087609405179414","3","-1.194","0.088","9.721","roll back","1"
"2087609425176019","3","-1.103","0.06","9.75","roll back","1"
"2087609445172629","3","-1.194","0.088","9.874","roll back","1"
"2087609465169009","3","-1.148","0.079","9.805","roll back","1"
"2087609485165884","3","-1.11","0.064","9.779","roll back","1"
"2087609505162485","3","-1.134","0.074","9.8","roll back","1"
"2087609525159057","3","-1.115","0.064","9.779","roll back","1"
"2087609545155725","3","-1.134","0.088","9.702","roll back","1"
"2087609565152258","3","-1.134","0.105","9.764","roll back","1"
"2087609585148869","3","-1.134","0.074","9.755","roll back","1"
"2087609605145547","3","-1.144","0.095","9.759","roll back","1"
"2087609625142095","3","-1.148","0.088","9.767","roll back","1"
"2087609645138773","3","-1.122","0.076","9.791","roll back","1"
"2087609665135364","3","-1.122","0.074","9.8","roll back","1"
"2087609685131903","3","-1.134","0.074","9.807","roll back","1"
"2087609705128595","3","-1.134","0.081","9.795","roll back","1"
"2087609725125200","3","-1.136","0.072","9.81","roll back","1"
"2087609745121811","3","-1.127","0.067","9.817","roll back","1"
"2087609765118349","3","-1.153","0.079","9.783","roll back","1"
"2087609785115023","3","-1.124","0.093","9.803","roll back","1"
"2087609805111556","3","-1.139","0.069","9.795","roll back","1"
"2087609825108187","3","-1.172","0.083","9.791","roll back","1"
"2087609845104893","3","-1.127","0.091","9.791","roll back","1"
"2087609865101498","3","-1.12","0.091","9.779","roll back","1"
"2087609885098134","3","-1.134","0.088","9.774","roll back","1"
"2087609905094768","3","-1.144","0.086","9.798","roll back","1"
"2087609925091384","3","-1.151","0.093","9.781","roll back","1"
"2087609945088220","3","-1.139","0.076","9.776","roll back","1"
"2087609965084624","3","-1.132","0.076","9.779","roll back","1"
"2087609985081239","3","-1.134","0.088","9.774","roll back","1"
"2087610005078104","3","-1.136","0.076","9.757","roll back","1"
"2087610025074504","3","-1.141","0.072","9.771","roll back","1"
"2087610045071345","3","-1.141","0.086","9.788","roll back","1"
"2087610065067735","3","-1.124","0.091","9.767","roll back","1"
"2087610085064364","3","-1.141","0.072","9.783","roll back","1"
"2087610105061219","3","-1.129","0.081","9.771","roll back","1"
"2087610125057840","3","-1.132","0.091","9.788","roll back","1"
"2087610145054436","3","-1.156","0.091","9.769","roll back","1"
"2087610165051062","3","-1.139","0.098","9.783","roll back","1"
"2087610185047460","3","-1.127","0.088","9.8","roll back","1"
"2087610205044317","3","-1.129","0.076","9.791","roll back","1"
"2087610225040927","3","-1.134","0.083","9.795","roll back","1"
"2087610245037542","3","-1.141","0.093","9.795","roll back","1"
"2087610265034235","3","-1.134","0.072","9.791","roll back","1"
"2087610285030758","3","-1.144","0.093","9.788","roll back","1"
"2087610305027384","3","-1.141","0.081","9.798","roll back","1"
"2087610325023989","3","-1.139","0.083","9.793","roll back","1"
"2087610345020595","3","-1.148","0.083","9.786","roll back","1"
"2087610365016970","3","-1.136","0.083","9.791","roll back","1"
"2087610385013816","3","-1.132","0.081","9.791","roll back","1"
"2087610405010422","3","-1.148","0.083","9.795","roll back","1"
"2087610425006807","3","-1.146","0.081","9.757","roll back","1"
"2087610445003643","3","-1.139","0.091","9.759","roll back","1"
"2087610465000268","3","-1.139","0.086","9.791","roll back","1"
"2087610484996879","3","-1.132","0.076","9.791","roll back","1"
"2087610504993499","3","-1.136","0.074","9.788","roll back","1"
"2087610524990090","3","-1.139","0.079","9.791","roll back","1"
"2087610544986696","3","-1.156","0.088","9.798","roll back","1"
"2087610564983325","3","-1.129","0.079","9.788","roll back","1"
"2087610584979936","3","-1.127","0.083","9.798","roll back","1"
"2087610604976643","3","-1.139","0.081","9.783","roll back","1"
"2087610624973273","3","-1.153","0.081","9.783","agitation","1"
"2087610644969816","3","-1.132","0.083","9.786","agitation","1"
"2087610664966508","3","-1.115","0.093","9.779","agitation","1"
"2087610684963056","3","-1.139","0.079","9.803","agitation","1"
"2087610704959681","3","-1.136","0.081","9.779","agitation","1"
"2087610724956379","3","-1.11","0.057","9.803","agitation","1"
"2087610744952921","3","-1.148","0.069","9.805","agitation","1"
"2087610764949624","3","-1.151","0.093","9.798","agitation","1"
"2087610784946239","3","-1.139","0.093","9.786","agitation","1"
"2087610804942768","3","-1.139","0.095","9.791","agitation","1"
"2087610824939460","3","-1.122","0.083","9.819","agitation","1"
"2087610844936075","3","-1.132","0.091","9.798","agitation","1"
"2087610864932609","3","-1.132","0.091","9.769","agitation","1"
"2087610884929287","3","-1.134","0.072","9.781","agitation","1"
"2087610904925821","3","-1.144","0.083","9.791","agitation","1"
"2087610924922508","3","-1.139","0.086","9.786","agitation","1"
"2087610944919124","3","-1.122","0.064","9.779","agitation","1"
"2087610964915667","3","-1.117","0.081","9.8","agitation","1"
"2087610984912359","3","-1.124","0.072","9.81","agitation","1"
"2087611004908999","3","-1.139","0.064","9.829","agitation","1"
"2087611024905600","3","-1.163","0.083","9.829","agitation","1"
"2087611044902216","3","-1.184","0.088","9.762","agitation","1"
"2087611064898816","3","-1.146","0.093","9.779","agitation","1"
"2087611084895341","3","-1.17","0.112","9.814","agitation","1"
"2087611104892033","3","-1.218","0.069","9.783","agitation","1"
"2087611124888652","3","-1.199","0.055","9.745","agitation","1"
"2087611144885196","3","-1.151","0.091","9.74","agitation","1"
"2087611164881898","3","-1.115","0.093","9.735","agitation","1"
"2087611184878417","3","-1.103","0.081","9.743","agitation","1"
"2087611204875032","3","-1.065","0.093","9.726","agitation","1"
"2087611224871745","3","-0.995","0.067","9.757","agitation","1"
"2087611244868263","3","-1.024","0.091","9.709","agitation","1"
"2087611264864871","3","-1.12","0.098","9.716","agitation","1"
"2087611284861548","3","-1.167","0.119","9.836","agitation","1"
"2087611304858158","3","-1.182","0.105","9.834","agitation","1"
"2087611324854755","3","-1.215","0.112","9.678","agitation","1"
"2087611344851375","3","-1.208","0.083","9.745","agitation","1"
"2087611364847966","3","-1.086","0.074","9.788","agitation","1"
"2087611384844601","3","-1.203","0.083","9.865","agitation","1"
"2087611404841159","3","-1.268","0.028","9.836","agitation","1"
"2087611424837769","3","-1.002","0.024","9.568","agitation","1"
"2087611444834461","3","-0.933","0.024","9.814","agitation","1"
"2087611464830994","3","-1.189","0.019","9.843","agitation","1"
"2087611484827600","3","-1.175","0.074","9.692","agitation","1"
"2087611504824326","3","-1.031","0.028","9.882","agitation","1"
"2087611524820941","3","-1.074","-0.027","9.927","agitation","1"
"2087611544817542","3","-1.117","0.007","9.652","agitation","1"
"2087611564814085","3","-1.093","0.028","9.7","agitation","1"
"2087611584810772","3","-1.088","0.014","9.834","agitation","1"
"2087611604807388","3","-1.144","0.026","9.805","agitation","1"
"2087611624803926","3","-1.076","0.021","9.807","agitation","1"
"2087611644800614","3","-0.997","-0.003","9.829","agitation","1"
"2087611664797229","3","-0.993","0.0","9.798","agitation","1"
"2087611684793845","3","-0.926","0.002","9.798","agitation","1"
"2087611704790446","3","-0.849","0.045","9.822","agitation","1"
"2087611724787056","3","-0.825","0.06","9.791","agitation","1"
"2087611744783677","3","-0.835","-0.005","9.805","agitation","1"
"2087611764780297","3","-0.918","-0.055","9.855","agitation","1"
"2087611784776835","3","-0.945","-0.051","9.831","agitation","1"
"2087611804773450","3","-0.909","-0.012","9.762","agitation","1"
"2087611824770052","3","-0.904","-0.041","9.807","agitation","1"
"2087611844766672","3","-1.055","-0.065","9.817","agitation","1"
"2087611864763282","3","-1.016","-0.027","9.767","agitation","1"
"2087611884759912","3","-0.916","-0.084","9.716","agitation","1"
"2087611904756609","3","-0.866","-0.096","9.719","agitation","1"
"2087611924753162","3","-1.17","-0.036","9.702","agitation","1"
"2087611944749854","3","-1.486","-0.096","9.623","agitation","1"
"2087611964746408","3","-1.369","-0.324","9.759","agitation","1"
"2087611984743028","3","-0.509","-1.921","10.224","agitation","1"
"2087612004739672","3","-0.339","0.167","9.738","agitation","1"
"2087612024736287","3","-2.032","3.347","9.604","agitation","1"
"2087612044732970","3","0.952","-0.242","11.292","agitation","1"
"2087612064729504","3","0.689","-0.858","12.126","agitation","1"
"2087612084726124","3","-1.754","-0.048","8.028","agitation","1"
"2087612104722744","3","-1.366","0.17","9.3","agitation","1"
"2087612124719374","3","-1.244","-0.132","10.495","agitation","1"
"2087612144715985","3","-1.196","-0.099","8.969","agitation","1"
"2087612164712595","3","-1.661","0.16","9.426","agitation","1"
"2087612184709215","3","-1.761","0.079","9.774","agitation","1"
"2087612204705836","3","-1.479","0.031","9.278","agitation","1"
"2087612224702206","3","-1.57","0.014","9.518","agitation","1"
"2087612244698821","3","-1.591","-0.022","9.613","agitation","1"
"2087612264695653","3","-1.352","-0.079","9.529","agitation","1"
"2087612284692033","3","-1.318","0.117","9.735","agitation","1"
"2087612304688644","3","-1.0","0.277","10.035","agitation","1"
"2087612324685480","3","-0.368","0.146","10.255","agitation","1"
"2087612344681893","3","-0.236","0.052","10.147","agitation","1"
"2087612364678523","3","-0.487","-0.101","10.025","agitation","1"
"2087612384675134","3","-0.51","-0.163","10.004","agitation","1"
"2087612404671734","3","-0.505","-0.158","10.013","agitation","1"
"2087612424668336","3","-0.873","-0.103","9.841","agitation","1"
"2087612444664941","3","-1.093","-0.041","9.807","agitation","1"
"2087612464661566","3","-1.065","-0.07","9.769","agitation","1"
"2087612484658181","3","-1.033","-0.029","9.649","agitation","1"
"2087612504654812","3","-1.105","0.012","9.652","agitation","1"
"2087612524651412","3","-1.129","0.038","9.592","agitation","1"
"2087612544648037","3","-1.108","0.062","9.688","agitation","1"
"2087612564644653","3","-1.081","0.074","9.762","agitation","1"
"2087612584641282","3","-1.045","0.076","9.767","agitation","1"
"2087612604637879","3","-1.033","0.04","9.812","agitation","1"
"2087612624634494","3","-1.041","0.048","9.803","agitation","1"
"2087612644631033","3","-1.014","0.014","9.85","agitation","1"
"2087612664627696","3","-0.983","-0.015","9.831","agitation","1"
"2087612684624220","3","-1.005","0.0","9.824","agitation","1"
"2087612704620936","3","-1.105","0.048","9.769","agitation","1"
"2087612724617556","3","-1.132","0.038","9.767","agitation","1"
"2087612744614120","3","-1.112","0.012","9.745","agitation","1"
"2087612764610716","3","-1.096","0.024","9.75","agitation","1"
"2087612784607313","3","-0.995","-0.024","9.822","agitation","1"
"2087612804603933","3","-0.94","-0.017","9.824","agitation","1"
"2087612824600615","3","-0.981","-0.015","9.805","agitation","1"
"2087612844597163","3","-0.978","-0.008","9.858","agitation","1"
"2087612864593778","3","-0.875","0.012","9.853","agitation","1"
"2087612884590385","3","-0.911","-0.012","9.822","agitation","1"
"2087612904587014","3","-0.993","0.012","9.853","agitation","1"
"2087612924583659","3","-0.964","0.033","9.829","agitation","1"
"2087612944580274","3","-1.007","0.031","9.793","agitation","1"
"2087612964576890","3","-1.062","0.007","9.788","agitation","1"
"2087612984573510","3","-1.074","0.012","9.779","agitation","1"
"2087613004570125","3","-1.105","0.016","9.779","agitation","1"
"2087613024566505","3","-1.041","0.007","9.771","agitation","1"
"2087613044563355","3","-0.969","0.007","9.783","agitation","1"
"2087613064559711","3","-0.988","-0.003","9.798","agitation","1"
"2087613084556268","3","-0.997","-0.046","9.853","agitation","1"
"2087613104553197","3","-0.921","-0.053","9.872","agitation","1"
"2087613124549590","3","-0.885","-0.008","9.867","agitation","1"
"2087613144546129","3","-0.983","-0.015","9.894","agitation","1"
"2087613164542816","3","-0.964","0.0","9.898","agitation","1"
"2087613184539418","3","-0.911","0.002","9.891","agitation","1"
"2087613204535975","3","-0.952","0.012","9.862","agitation","1"
"2087613224532633","3","-1.007","0.04","9.807","agitation","1"
"2087613244529167","3","-1.031","0.014","9.767","agitation","1"
"2087613264525869","3","-1.062","0.026","9.757","agitation","1"
"2087613284522418","3","-1.074","0.031","9.704","agitation","1"
"2087613304519056","3","-1.086","0.024","9.704","agitation","1"
"2087613324515749","3","-1.129","0.043","9.702","agitation","1"
"2087613344512268","3","-1.122","0.033","9.702","agitation","1"
"2087613364508874","3","-1.084","0.045","9.709","agitation","1"
"2087613384505509","3","-1.076","0.012","9.752","agitation","1"
"2087613404502138","3","-1.093","-0.008","9.81","agitation","1"
"2087613424498778","3","-1.007","-0.017","9.822","agitation","1"
"2087613444495388","3","-0.976","0.012","9.788","agitation","1"
"2087613464491783","3","-1.053","-0.005","9.791","agitation","1"
"2087613484488619","3","-1.036","-0.015","9.824","agitation","1"
"2087613504485023","3","-0.962","-0.022","9.841","agitation","1"
"2087613524481628","3","-0.918","-0.022","9.838","agitation","1"
"2087613544478278","3","-0.938","-0.031","9.891","agitation","1"
"2087613564474893","3","-0.926","-0.012","9.915","agitation","1"
"2087613584471509","3","-0.904","0.038","9.901","agitation","1"
"2087613604468124","3","-0.966","0.093","9.865","agitation","1"
"2087613624464710","3","-1.053","0.069","9.8","agitation","1"
"2087613644461321","3","-1.1","0.052","9.747","agitation","1"
"2087613664457873","3","-1.112","0.043","9.702","agitation","1"
"2087613684454504","3","-1.132","0.048","9.676","agitation","1"
"2087613704451181","3","-1.151","0.007","9.726","agitation","1"
"2087613724447792","3","-1.014","-0.012","9.786","agitation","1"
"2087613744444075","3","-0.959","-0.005","9.788","agitation","1"
"2087613764440989","3","-1.016","-0.01","9.855","agitation","1"
"2087613784437528","3","-0.945","-0.058","9.92","agitation","1"
"2087613804433927","3","-0.916","-0.048","9.929","agitation","1"
"2087613824430773","3","-0.973","-0.058","9.941","agitation","1"
"2087613844427378","3","-0.863","-0.012","9.929","agitation","1"
"2087613864423966","3","-0.897","0.009","9.858","agitation","1"
"2087613884420335","3","-1.029","0.04","9.791","agitation","1"
"2087613904416937","3","-0.952","0.045","9.738","agitation","1"
"2087613924413561","3","-0.993","0.064","9.712","agitation","1"
"2087613944410187","3","-1.165","0.079","9.676","agitation","1"
"2087613964406802","3","-1.141","0.067","9.697","agitation","1"
"2087613984403417","3","-1.096","0.062","9.678","agitation","1"
"2087614004399985","3","-1.167","0.033","9.704","agitation","1"
"2087614024396543","3","-1.165","0.04","9.779","agitation","1"
"2087614044393221","3","-1.055","0.028","9.86","agitation","1"
"2087614064389846","3","-0.988","0.021","9.865","agitation","1"
"2087614084386385","3","-1.007","-0.01","9.891","agitation","1"
"2087614104383048","3","-0.973","-0.046","9.92","agitation","1"
"2087614124379577","3","-0.878","-0.027","9.927","agitation","1"
"2087614144376183","3","-0.887","-0.036","9.889","agitation","1"
"2087614164372798","3","-0.933","-0.034","9.865","agitation","1"
"2087614184369423","3","-0.88","-0.015","9.867","agitation","1"
"2087614204366033","3","-0.911","-0.012","9.791","agitation","1"
"2087614224362654","3","-1.026","0.009","9.726","agitation","1"
"2087614244359245","3","-1.024","0.007","9.743","agitation","1"
"2087614264355846","3","-0.933","0.012","9.771","agitation","1"
"2087614284352240","3","-0.966","0.05","9.767","agitation","1"
"2087614304349072","3","-1.069","0.055","9.75","agitation","1"
"2087614324345490","3","-1.067","0.064","9.791","agitation","1"
"2087614344342116","3","-1.05","0.069","9.771","agitation","1"
"2087614364338635","3","-1.093","0.024","9.781","agitation","1"
"2087614384335346","3","-1.065","0.002","9.8","agitation","1"
"2087614404331890","3","-1.074","0.028","9.783","agitation","1"
"2087614424328538","3","-1.079","0.004","9.81","agitation","1"
"2087614444325154","3","-1.045","-0.01","9.803","agitation","1"
"2087614464321788","3","-1.088","0.014","9.836","agitation","1"
"2087614484318159","3","-1.108","0.012","9.786","agitation","1"
"2087614504315010","3","-1.079","0.0","9.812","agitation","1"
"2087614524311404","3","-1.053","0.019","9.81","agitation","1"
"2087614544308245","3","-1.053","0.031","9.798","agitation","1"
"2087614564304625","3","-1.06","0.016","9.774","agitation","1"
"2087614584301240","3","-1.045","0.012","9.791","agitation","1"
"2087614604298062","3","-1.021","0.016","9.783","agitation","1"
"2087614624294452","3","-0.971","0.014","9.81","sit up","1"
"2087614644291081","3","-0.902","-0.003","9.834","sit up","1"
"2087614664287677","3","-0.892","-0.022","9.838","sit up","1"
"2087614684284234","3","-0.856","-0.046","9.877","sit up","1"
"2087614704280894","3","-0.736","-0.015","9.915","sit up","1"
"2087614724277504","3","-0.837","-0.019","9.877","sit up","1"
"2087614744274038","3","-0.885","-0.029","9.922","sit up","1"
"2087614764270726","3","-0.813","0.019","9.872","sit up","1"
"2087614784267264","3","-0.938","0.033","9.788","sit up","1"
"2087614804263662","3","-1.055","0.031","9.774","sit up","1"
"2087614824260513","3","-1.062","0.036","9.723","sit up","1"
"2087614844256893","3","-1.1","0.05","9.704","sit up","1"
"2087614864253739","3","-1.163","0.052","9.712","sit up","1"
"2087614884250139","3","-1.17","0.043","9.69","sit up","1"
"2087614904246763","3","-1.151","0.043","9.697","sit up","1"
"2087614924243408","3","-1.103","0.043","9.738","sit up","1"
"2087614944240023","3","-1.084","0.019","9.764","sit up","1"
"2087614964236552","3","-1.084","0.009","9.826","sit up","1"
"2087614984233235","3","-1.011","-0.012","9.891","sit up","1"
"2087615004229774","3","-0.914","-0.017","9.925","sit up","1"
"2087615024226408","3","-0.945","-0.015","9.901","sit up","1"
"2087615044223114","3","-0.935","-0.022","9.891","sit up","1"
"2087615064219658","3","-0.914","-0.031","9.872","sit up","1"
"2087615084216047","3","-0.978","-0.008","9.838","sit up","1"
"2087615104212884","3","-0.978","0.019","9.807","sit up","1"
"2087615124209263","3","-1.014","0.028","9.776","sit up","1"
"2087615144205860","3","-1.045","0.036","9.762","sit up","1"
"2087615164202475","3","-1.048","0.033","9.735","sit up","1"
"2087615184199091","3","-1.043","0.019","9.733","sit up","1"
"2087615204195624","3","-1.045","0.014","9.728","sit up","1"
"2087615224192312","3","-1.043","0.016","9.747","sit up","1"
"2087615244188840","3","-1.036","0.004","9.786","sit up","1"
"2087615264185455","3","-1.019","0.004","9.786","sit up","1"
"2087615284182081","3","-1.074","0.026","9.779","sit up","1"
"2087615304178711","3","-1.213","0.057","9.795","sit up","1"
"2087615324175341","3","-1.402","0.06","9.558","sit up","1"
"2087615344171970","3","-1.474","0.052","9.273","sit up","1"
"2087615364168341","3","-1.167","0.086","9.328","sit up","1"
"2087615384165164","3","-1.029","0.201","9.527","sit up","1"
"2087615404161544","3","-1.378","0.347","10.049","sit up","1"
"2087615424158168","3","-1.417","0.352","9.925","sit up","1"
"2087615444154784","3","-0.751","0.158","9.757","sit up","1"
"2087615464151355","3","0.097","-0.008","9.968","sit up","1"
"2087615484147985","3","0.581","-0.875","10.334","sit up","1"
"2087615504144591","3","-0.231","-0.817","10.59","sit up","1"
"2087615524141215","3","-0.799","0.033","9.91","sit up","1"
"2087615544137846","3","-1.112","-0.381","9.977","sit up","1"
"2087615564134441","3","-0.528","-0.307","10.21","sit up","1"
"2087615584131057","3","0.025","-0.19","10.152","sit up","1"
"2087615604127658","3","-0.164","-0.228","9.997","sit up","1"
"2087615624124068","3","-0.389","-0.134","9.903","sit up","1"
"2087615644120683","3","-0.581","-0.07","9.886","sit up","1"
"2087615664117289","3","-0.691","-0.015","9.743","sit up","1"
"2087615684113827","3","-0.665","-0.19","9.793","sit up","1"
"2087615704110443","3","-0.847","-0.223","9.733","sit up","1"
"2087615724107063","3","-1.021","-0.06","9.661","sit up","1"
"2087615744103438","3","-1.194","0.076","9.826","sit up","1"
"2087615764100284","3","-0.947","0.019","9.745","sit up","1"
"2087615784096650","3","-0.871","-0.012","9.759","sit up","1"
"2087615804093245","3","-1.026","-0.103","9.812","sit up","1"
"2087615824089875","3","-1.206","-0.082","9.759","sit up","1"
"2087615844086414","3","-1.108","-0.082","9.707","sit up","1"
"2087615864083014","3","-0.892","-0.075","9.908","sit up","1"
"2087615884079736","3","-0.911","-0.031","9.846","sit up","1"
"2087615904076274","3","-0.971","-0.041","9.908","sit up","1"
"2087615924072909","3","-1.045","-0.075","9.891","sit up","1"
"2087615944069499","3","-1.0","-0.118","9.695","sit up","1"
"2087615964065884","3","-0.906","-0.082","9.757","sit up","1"
"2087615984062721","3","-0.95","-0.079","9.767","sit up","1"
"2087616004059110","3","-0.988","-0.075","9.719","sit up","1"
"2087616024055749","3","-1.002","-0.051","9.719","sit up","1"
"2087616044052590","3","-1.1","-0.115","9.673","sit up","1"
"2087616064048970","3","-1.103","-0.106","9.623","sit up","1"
"2087616084045576","3","-1.045","-0.072","9.776","sit up","1"
"2087616104042201","3","-1.136","-0.024","9.814","sit up","1"
"2087616124038744","3","-1.27","-0.065","9.733","sit up","1"
"2087616144035370","3","-1.103","-0.065","9.673","sit up","1"
"2087616164031965","3","-1.038","-0.175","9.764","sit up","1"
"2087616184028350","3","-1.35","-0.142","9.793","sit up","1"
"2087616204025178","3","-1.567","-0.034","9.733","sit up","1"
"2087616224021568","3","-1.572","-0.144","9.582","sit up","1"
"2087616244018409","3","-1.668","-0.108","9.793","sit up","1"
"2087616264015018","3","-1.601","-0.139","10.047","sit up","1"
"2087616284011403","3","-1.079","-0.077","10.071","sit up","1"
"2087616304008023","3","-0.36","-0.008","10.159","sit up","1"
"2087616324004576","3","-0.456","0.076","9.867","sit up","1"
"2087616344001172","3","-0.585","0.131","9.376","sit up","1"
"2087616363997788","3","-1.256","-0.111","9.712","sit up","1"
"2087616383994398","3","-0.851","-0.015","10.543","sit up","1"
"2087616403990797","3","-0.605","0.301","10.064","sit up","1"
"2087616423987403","3","-0.76","-0.185","8.593","sit up","1"
"2087616443984023","3","-0.835","0.083","9.369","sit up","1"
"2087616463980629","3","-1.132","-0.067","10.411","sit up","1"
"2087616483977249","3","-1.498","-0.216","10.504","sit up","1"
"2087616503973864","3","-1.22","0.107","9.362","sit up","1"
"2087616523970437","3","-1.031","0.148","9.285","sit up","1"
"2087616543967061","3","-1.122","0.093","9.537","sit up","1"
"2087616563963657","3","-1.457","0.107","9.64","sit up","1"
"2087616583960058","3","-1.567","0.242","9.534","sit up","1"
"2087616603956668","3","-1.603","0.057","9.719","sit up","1"
"2087616623953284","3","-1.373","0.038","9.908","sit up","1"
"2087616643949884","3","-0.521","-0.027","9.87","sit up","1"
"2087616663946510","3","-0.871","0.165","9.553","sit up","1"
"2087616683943038","3","-2.834","-0.154","8.806","sit up","1"
"2087616703939649","3","-1.194","0.268","10.487","sit up","1"
"2087616723936259","3","-0.43","-0.096","10.291","sit up","1"
"2087616743932880","3","-0.825","-0.087","9.479","sit up","1"
"2087616763929476","3","-1.338","0.175","9.312","sit up","1"
"2087616783925871","3","-1.208","-0.048","10.418","sit up","1"
"2087616803922750","3","-0.866","-0.019","10.255","sit up","1"
"2087616823919135","3","-0.775","0.122","9.467","sit up","1"
"2087616843915726","3","-0.854","0.06","9.87","sit up","1"
"2087616863912341","3","-0.973","-0.024","10.243","sit up","1"
"2087616883908880","3","-0.923","0.16","9.803","sit up","1"
"2087616903905480","3","-0.748","0.069","9.709","sit up","1"
"2087616923902091","3","-0.736","0.11","10.073","sit up","1"
"2087616943898701","3","-0.794","0.21","10.092","sit up","1"
"2087616963895086","3","-0.789","0.088","9.755","sit up","1"
"2087616983891922","3","-0.763","0.119","9.618","sit up","1"
"2087617003888326","3","-0.839","0.292","9.774","sit up","1"
"2087617023884956","3","-0.859","0.242","9.87","sit up","1"
"2087617043881572","3","-0.933","0.093","9.944","sit up","1"
"2087617063878090","3","-0.906","0.124","9.889","sit up","1"
"2087617083874485","3","-0.875","0.25","9.764","sit up","1"
"2087617103871297","3","-0.873","0.304","9.776","sit up","1"
"2087617123867635","3","-0.885","0.227","9.87","sit up","1"
"2087617143864250","3","-0.935","0.182","9.949","sit up","1"
"2087617163860856","3","-0.871","0.261","9.793","sit up","1"
"2087617183857462","3","-0.76","0.33","9.702","sit up","1"
"2087617203854081","3","-0.751","0.261","9.791","sit up","1"
"2087617223850702","3","-0.842","0.25","9.843","sit up","1"
"2087617243847264","3","-0.887","0.304","9.836","sit up","1"
"2087617263843885","3","-0.899","0.323","9.788","sit up","1"
"2087617283840500","3","-0.897","0.318","9.728","sit up","1"
"2087617303836899","3","-0.94","0.289","9.803","sit up","1"
"2087617323833740","3","-0.918","0.318","9.776","sit up","1"
"2087617343830125","3","-0.83","0.261","9.973","sit up","1"
"2087617363826755","3","-0.818","0.292","9.838","sit up","1"
"2087617383823395","3","-0.851","0.349","9.712","sit up","1"
"2087617403819956","3","-0.928","0.309","9.762","sit up","1"
"2087617423816681","3","-0.94","0.27","9.814","sit up","1"
"2087617443813032","3","-0.851","0.289","9.807","sit up","1"
"2087617463809663","3","-0.899","0.239","9.776","sit up","1"
"2087617483806528","3","-1.045","0.256","9.843","sit up","1"
"2087617503802907","3","-0.952","0.285","9.714","sit up","1"
"2087617523799773","3","-0.875","0.318","9.769","sit up","1"
"2087617543796168","3","-0.945","0.292","9.836","sit up","1"
"2087617563792678","3","-0.911","0.246","9.767","sit up","1"
"2087617583789288","3","-0.803","0.201","9.81","sit up","1"
"2087617603785914","3","-0.806","0.215","9.929","sit up","1"
"2087617623782519","3","-0.779","0.232","9.886","sit up","1"
"2087617643778914","3","-0.686","0.258","9.908","sit up","1"
"2087617663775529","3","-0.684","0.244","9.915","sit up","1"
"2087617683772125","3","-0.777","0.206","9.932","sit up","1"
"2087617703768731","3","-0.918","0.234","9.905","sit up","1"
"2087617723765318","3","-0.878","0.25","9.788","sit up","1"
"2087617743761856","3","-0.818","0.263","9.731","sit up","1"
"2087617763758432","3","-0.744","0.25","9.853","sit up","1"
"2087617783755039","3","-0.768","0.215","9.982","sit up","1"
"2087617803751409","3","-0.801","0.203","9.87","sit up","1"
"2087617823748029","3","-0.779","0.215","9.877","sit up","1"
"2087617843744639","3","-0.777","0.215","9.999","sit up","1"
"2087617863741153","3","-0.784","0.198","9.905","sit up","1"
"2087617883737850","3","-0.789","0.21","9.8","sit up","1"
"2087617903734398","3","-0.765","0.22","9.803","sit up","1"
"2087617923731018","3","-0.777","0.177","9.824","sit up","1"
"2087617943727629","3","-0.878","0.191","9.781","sit up","1"
"2087617963723999","3","-0.88","0.184","9.704","sit up","1"
"2087617983720610","3","-0.835","0.189","9.771","sit up","1"
"2087618003717230","3","-0.844","0.213","9.834","sit up","1"
"2087618023713841","3","-0.837","0.222","9.805","sit up","1"
"2087618043710389","3","-0.909","0.186","9.807","sit up","1"
"2087618063707004","3","-0.983","0.17","9.776","sit up","1"
"2087618083703639","3","-0.789","0.203","9.841","sit up","1"
"2087618103700024","3","-0.899","0.186","9.783","sit up","1"
"2087618123696639","3","-0.942","0.21","9.812","sit up","1"
"2087618143693250","3","-0.808","0.203","9.929","sit up","1"
"2087618163689783","3","-0.851","0.184","9.779","sit up","1"
"2087618183686485","3","-0.803","0.172","9.848","sit up","1"
"2087618203683004","3","-0.88","0.186","9.829","sit up","1"
"2087618223679624","3","-0.837","0.208","9.829","sit up","1"
"2087618243676206","3","-0.851","0.201","9.86","sit up","1"
"2087618263672605","3","-0.88","0.186","9.826","sit up","1"
"2087618283669211","3","-0.815","0.196","9.822","sit up","1"
"2087618303665835","3","-0.839","0.201","9.807","sit up","1"
"2087618323662394","3","-0.835","0.206","9.908","sit up","1"
"2087618343658797","3","-0.844","0.208","9.855","sit up","1"
"2087618363655629","3","-0.868","0.203","9.848","sit up","1"
"2087618383652220","3","-0.849","0.206","9.829","sit up","1"
"2087618403648528","3","-0.837","0.213","9.853","sit up","1"
"2087618423645230","3","-0.851","0.203","9.817","sit up","1"
"2087618443641860","3","-0.842","0.206","9.838","sit up","1"
"2087618463638412","3","-0.854","0.206","9.846","sit up","1"
"2087618483635019","3","-0.866","0.201","9.81","sit up","1"
"2087618503631408","3","-0.863","0.208","9.824","sit up","1"
"2087618523628043","3","-0.861","0.206","9.817","sit up","1"
"2087618543624663","3","-0.863","0.206","9.783","sit up","1"
"2087618563621216","3","-0.892","0.21","9.819","sit up","1"
"2087618583617908","3","-0.914","0.201","9.807","sit up","1"
"2087618603614532","3","-0.873","0.208","9.779","sit up","1"
"2087618623611076","3","-0.851","0.218","9.836","stand up","1"
"2087618643607677","3","-0.859","0.206","9.826","stand up","1"
"2087618663604062","3","-0.859","0.21","9.819","stand up","1"
"2087618683600691","3","-0.868","0.208","9.81","stand up","1"
"2087618703597331","3","-0.849","0.21","9.826","stand up","1"
"2087618723593879","3","-0.837","0.203","9.822","stand up","1"
"2087618743590562","3","-0.842","0.21","9.85","stand up","1"
"2087618763587090","3","-0.827","0.191","9.848","stand up","1"
"2087618783583697","3","-0.859","0.208","9.831","stand up","1"
"2087618803580312","3","-0.856","0.208","9.798","stand up","1"
"2087618823576707","3","-0.854","0.213","9.846","stand up","1"
"2087618843573269","3","-0.89","0.206","9.834","stand up","1"
"2087618863569948","3","-0.875","0.213","9.769","stand up","1"
"2087618883566495","3","-0.868","0.21","9.803","stand up","1"
"2087618903563111","3","-0.916","0.198","9.822","stand up","1"
"2087618923559745","3","-0.878","0.213","9.692","stand up","1"
"2087618943556130","3","-0.871","0.242","9.688","stand up","1"
"2087618963552668","3","-0.93","0.215","9.767","stand up","1"
"2087618983549337","3","-0.88","0.213","9.726","stand up","1"
"2087619003545865","3","-0.669","0.189","9.999","stand up","1"
"2087619023542466","3","-0.82","0.119","9.999","stand up","1"
"2087619043538836","3","-0.928","0.194","9.776","stand up","1"
"2087619063535428","3","-0.751","0.22","9.949","stand up","1"
"2087619083532038","3","-0.751","0.182","9.953","stand up","1"
"2087619103528601","3","-0.669","0.218","9.884","stand up","1"
"2087619123525284","3","-0.629","0.232","9.987","stand up","1"
"2087619143521822","3","-0.6","0.213","9.963","stand up","1"
"2087619163518414","3","-0.571","0.186","9.992","stand up","1"
"2087619183514778","3","-0.533","0.237","9.939","stand up","1"
"2087619203511365","3","-0.468","0.186","10.073","stand up","1"
"2087619223507980","3","-0.449","0.165","9.997","stand up","1"
"2087619243504515","3","-0.724","0.256","9.836","stand up","1"
"2087619263501120","3","-0.95","0.266","9.743","stand up","1"
"2087619283497717","3","-0.978","0.184","9.838","stand up","1"
"2087619303494336","3","-1.069","0.21","9.819","stand up","1"
"2087619323490741","3","-1.215","0.206","9.905","stand up","1"
"2087619343487356","3","-0.739","0.095","10.011","stand up","1"
"2087619363483967","3","-0.363","0.182","9.728","stand up","1"
"2087619383480538","3","-0.588","0.242","9.671","stand up","1"
"2087619403477169","3","-0.899","-0.01","10.2","stand up","1"
"2087619423473755","3","-1.031","0.052","10.186","stand up","1"
"2087619443470169","3","-1.065","0.335","9.913","stand up","1"
"2087619463466749","3","-1.227","0.309","9.685","stand up","1"
"2087619483463346","3","-1.338","0.086","9.489","stand up","1"
"2087619503459908","3","-1.402","0.105","9.321","stand up","1"
"2087619523456638","3","-1.512","0.158","9.661","stand up","1"
"2087619543453172","3","-1.829","0.184","10.286","stand up","1"
"2087619563449552","3","-2.255","0.038","10.356","stand up","1"
"2087619583446394","3","-2.784","0.009","9.618","stand up","1"
"2087619603442702","3","-1.773","0.237","7.429","stand up","1"
"2087619623439326","3","-0.499","0.522","8.215","stand up","1"
"2087619643435946","3","-0.938","0.198","11.388","stand up","1"
"2087619663432562","3","-2.262","0.067","11.172","stand up","1"
"2087619683428952","3","-2.116","0.091","8.837","stand up","1"
"2087619703425552","3","-1.27","0.124","8.813","stand up","1"
"2087619723422158","3","-1.088","0.222","9.055","stand up","1"
"2087619743418711","3","-1.522","0.273","9.747","stand up","1"
"2087619763415307","3","-2.149","0.196","10.943","stand up","1"
"2087619783411942","3","-2.14","0.052","10.27","stand up","1"
"2087619803408364","3","-1.393","0.091","8.969","stand up","1"
"2087619823404985","3","-1.16","0.105","9.082","stand up","1"
"2087619843401504","3","-1.826","0.266","9.776","stand up","1"
"2087619863398216","3","-1.833","0.227","10.119","stand up","1"
"2087619883394759","3","-1.522","0.122","9.834","stand up","1"
"2087619903391144","3","-1.706","0.076","9.604","stand up","1"
"2087619923388023","3","-1.68","0.177","9.532","stand up","1"
"2087619943384317","3","-1.601","0.191","9.635","stand up","1"
"2087619963380917","3","-1.62","0.184","9.769","stand up","1"
"2087619983377615","3","-1.646","0.148","9.783","stand up","1"
"2087620003373936","3","-1.711","0.119","9.659","stand up","1"
"2087620023370793","3","-1.637","0.129","9.704","stand up","1"
"2087620043367172","3","-1.627","0.179","9.652","stand up","1"
"2087620063363764","3","-1.658","0.194","9.702","stand up","1"
"2087620083360379","3","-1.642","0.148","9.702","stand up","1"
"2087620103356913","3","-1.637","0.115","9.676","stand up","1"
"2087620123353524","3","-1.673","0.158","9.74","stand up","1"
"2087620143349894","3","-1.656","0.184","9.695","stand up","1"
"2087620163346504","3","-1.627","0.175","9.659","stand up","1"
"2087620183343336","3","-1.661","0.155","9.676","stand up","1"
"2087620203339644","3","-1.668","0.148","9.688","stand up","1"
"2087620223336263","3","-1.67","0.155","9.716","stand up","1"
"2087620243332860","3","-1.654","0.177","9.719","stand up","1"
"2087620263329269","3","-1.658","0.17","9.685","stand up","1"
"2087620283325889","3","-1.651","0.148","9.661","stand up","1"
"2087620303322499","3","-1.661","0.136","9.673","stand up","1"
"2087620323319023","3","-1.661","0.151","9.728","stand up","1"
"2087620343315404","3","-1.656","0.163","9.738","stand up","1"
"2087620363312018","3","-1.651","0.151","9.685","stand up","1"
"2087620383308657","3","-1.658","0.163","9.668","stand up","1"
"2087620403305220","3","-1.673","0.141","9.685","stand up","1"
"2087620423301917","3","-1.651","0.16","9.714","stand up","1"
"2087620443298220","3","-1.661","0.158","9.707","stand up","1"
"2087620463294841","3","-1.668","0.148","9.671","stand up","1"
"2087620483291706","3","-1.668","0.151","9.649","stand up","1"
"2087620503288013","3","-1.658","0.158","9.685","stand up","1"
"2087620523284701","3","-1.649","0.16","9.709","stand up","1"
"2087620543281234","3","-1.651","0.167","9.704","stand up","1"
"2087620563277850","3","-1.666","0.148","9.68","stand up","1"
"2087620583274451","3","-1.649","0.151","9.668","stand up","1"
"2087620603270846","3","-1.651","0.165","9.683","stand up","1"
"2087620623267398","3","-1.646","0.16","9.704","stand up","1"
"2087620643264091","3","-1.67","0.151","9.692","stand up","1"
"2087620663260388","3","-1.675","0.151","9.68","stand up","1"
"2087620683257235","3","-1.651","0.165","9.697","stand up","1"
"2087620703253605","3","-1.656","0.16","9.695","stand up","1"
"2087620723250211","3","-1.656","0.16","9.7","stand up","1"
"2087620743246754","3","-1.666","0.163","9.678","stand up","1"
"2087620763243370","3","-1.649","0.158","9.68","stand up","1"
"2087620783239749","3","-1.654","0.143","9.68","stand up","1"
"2087620803236581","3","-1.654","0.139","9.697","stand up","1"
"2087620823232956","3","-1.658","0.158","9.697","stand up","1"
"2087620843229576","3","-1.646","0.167","9.704","stand up","1"
"2087620863226134","3","-1.658","0.155","9.7","stand up","1"
"2087620883222528","3","-1.654","0.163","9.683","stand up","1"
"2087620903219148","3","-1.668","0.165","9.688","stand up","1"
"2087620923215783","3","-1.668","0.16","9.69","stand up","1"
"2087620943212384","3","-1.663","0.158","9.68","stand up","1"
"2087620963208923","3","-1.663","0.148","9.69","stand up","1"
"2087620983205547","3","-1.656","0.153","9.69","stand up","1"
"2087621003201947","3","-1.658","0.163","9.695","stand up","1"
"2087621023198499","3","-1.656","0.163","9.695","stand up","1"
"2087621043195105","3","-1.666","0.155","9.69","stand up","1"
"2087621063191475","3","-1.663","0.155","9.7","stand up","1"
"2087621083188303","3","-1.661","0.163","9.716","stand up","1"
"2087621103184701","3","-1.661","0.16","9.695","stand up","1"
"2087621123181245","3","-1.649","0.148","9.678","stand up","1"
"2087621143177937","3","-1.668","0.148","9.692","stand up","1"
"2087621163174461","3","-1.666","0.146","9.692","stand up","1"
"2087621183170821","3","-1.663","0.172","9.692","stand up","1"
"2087621203167432","3","-1.649","0.167","9.695","stand up","1"
"2087621223163970","3","-1.651","0.16","9.7","stand up","1"
"2087621243160553","3","-1.668","0.146","9.685","stand up","1"
"2087621263157153","3","-1.663","0.158","9.695","stand up","1"
"2087621283153548","3","-1.666","0.167","9.692","stand up","1"
"2087621303150172","3","-1.663","0.16","9.69","stand up","1"
"2087621323146788","3","-1.661","0.153","9.678","stand up","1"
"2087621343143326","3","-1.656","0.167","9.68","stand up","1"
"2087621363139937","3","-1.658","0.17","9.692","stand up","1"
"2087621383136337","3","-1.666","0.16","9.683","stand up","1"
"2087621403132953","3","-1.661","0.165","9.69","stand up","1"
"2087621423129558","3","-1.663","0.165","9.692","stand up","1"
"2087621443126092","3","-1.663","0.163","9.695","stand up","1"
"2087621463122784","3","-1.658","0.167","9.702","stand up","1"
"2087621483119322","3","-1.656","0.148","9.69","stand up","1"
"2087621503115717","3","-1.661","0.143","9.673","stand up","1"
"2087621523112337","3","-1.67","0.172","9.683","stand up","1"
"2087621543108903","3","-1.673","0.165","9.692","stand up","1"
"2087621563105303","3","-1.666","0.16","9.697","stand up","1"
"2087621583102163","3","-1.658","0.155","9.666","stand up","1"
"2087621603098538","3","-1.675","0.16","9.685","stand up","1"
"2087621623095062","3","-1.682","0.167","9.7","stand up","1"
"2087621643091667","3","-1.656","0.163","9.676","stand up","1"
"2087621663088265","3","-1.666","0.158","9.676","stand up","1"
"2087621683084663","3","-1.678","0.167","9.68","stand up","1"
"2087621703081278","3","-1.675","0.163","9.68","stand up","1"
"2087621723077827","3","-1.663","0.158","9.707","stand up","1"
"2087621743074423","3","-1.668","0.163","9.678","stand up","1"
"2087621763071038","3","-1.663","0.167","9.68","stand up","1"
"2087621783067404","3","-1.661","0.155","9.685","stand up","1"
"2087621803064047","3","-1.654","0.16","9.68","stand up","1"
"2087621823060596","3","-1.666","0.16","9.688","stand up","1"
"2087621843057196","3","-1.658","0.158","9.678","stand up","1"
"2087621863053794","3","-1.663","0.172","9.688","stand up","1"
"2087621883050164","3","-1.666","0.155","9.68","stand up","1"
"2087621903046794","3","-1.67","0.163","9.7","stand up","1"
"2087621923043332","3","-1.67","0.163","9.685","stand up","1"
"2087621943039721","3","-1.658","0.167","9.7","stand up","1"
"2087621963036576","3","-1.675","0.17","9.697","stand up","1"
"2087621983032971","3","-1.666","0.155","9.695","stand up","1"
"2087622003029496","3","-1.67","0.158","9.685","stand up","1"
"2087622023026121","3","-1.666","0.165","9.685","stand up","1"
"2087622043022736","3","-1.661","0.155","9.697","stand up","1"
"2087622063019371","3","-1.668","0.158","9.7","stand up","1"
"2087622083015755","3","-1.663","0.158","9.695","stand up","1"
"2087622103012327","3","-1.663","0.17","9.685","stand up","1"
"2087622123008923","3","-1.668","0.16","9.704","stand up","1"
"2087622143005308","3","-1.661","0.163","9.709","stand up","1"
"2087622163001938","3","-1.663","0.175","9.683","stand up","1"
"2087622182998539","3","-1.67","0.158","9.692","stand up","1"
"2087622202995082","3","-1.656","0.165","9.695","stand up","1"
"2087622222991452","3","-1.651","0.167","9.697","stand up","1"
"2087622242988298","3","-1.656","0.151","9.673","stand up","1"
"2087622262984673","3","-1.661","0.158","9.695","stand up","1"
"2087622282981192","3","-1.656","0.16","9.69","stand up","1"
"2087622302977832","3","-1.661","0.163","9.695","stand up","1"
"2087622322974231","3","-1.663","0.151","9.69","stand up","1"
"2087622342970759","3","-1.649","0.158","9.692","stand up","1"
"2087622362967446","3","-1.651","0.17","9.668","stand up","1"
"2087622382963985","3","-1.663","0.153","9.697","stand up","1"
"2087622402960355","3","-1.68","0.165","9.69","stand up","1"
"2087622422956943","3","-1.661","0.17","9.69","stand up","1"
"2087622442953472","3","-1.668","0.17","9.673","stand up","1"
"2087622462950135","3","-1.678","0.158","9.709","stand up","1"
"2087622482946668","3","-1.651","0.16","9.685","stand up","1"
"2087622502943024","3","-1.654","0.17","9.695","stand up","1"
"2087622522939660","3","-1.666","0.163","9.683","stand up","1"
"2087622542936188","3","-1.673","0.148","9.685","stand up","1"
"2087622562932563","3","-1.661","0.17","9.685","stand up","1"
"2087622582929423","3","-1.663","0.167","9.673","stand up","1"
"2087622602925813","3","-1.675","0.141","9.688","stand up","1"
"2087622632920789","3","-1.654","0.167","9.688","stand up","1"
"2087622652917399","3","-1.651","0.165","9.697","none","2"
"2087622672913789","3","-1.666","0.17","9.685","none","2"
"2087622692910337","3","-1.668","0.167","9.676","none","2"
"2087622712906980","3","-1.661","0.158","9.688","none","2"
"2087622732903619","3","-1.668","0.153","9.707","none","2"
"2087622752900255","3","-1.675","0.155","9.676","none","2"
"2087622772896667","3","-1.668","0.172","9.676","none","2"
"2087622792893231","3","-1.656","0.16","9.683","none","2"
"2087622812889870","3","-1.663","0.163","9.683","none","2"
"2087622832886226","3","-1.661","0.167","9.688","none","2"
"2087622852882865","3","-1.67","0.158","9.685","none","2"
"2087622872879485","3","-1.661","0.148","9.673","none","2"
"2087622892876028","3","-1.658","0.186","9.68","none","2"
"2087622912872413","3","-1.67","0.151","9.688","none","2"
"2087622932869028","3","-1.67","0.167","9.7","none","2"
"2087622952865625","3","-1.668","0.179","9.695","none","2"
"2087622972862183","3","-1.656","0.167","9.683","none","2"
"2087622992858573","3","-1.666","0.155","9.692","none","2"
"2087623012855164","3","-1.673","0.172","9.685","none","2"
"2087623032851698","3","-1.663","0.165","9.685","none","2"
"2087623052848313","3","-1.67","0.155","9.69","none","2"
"2087623072844679","3","-1.68","0.146","9.685","none","2"
"2087623092841207","3","-1.656","0.163","9.654","none","2"
"2087623112837881","3","-1.661","0.17","9.697","none","2"
"2087623132834423","3","-1.67","0.155","9.683","none","2"
"2087623152831044","3","-1.666","0.16","9.673","none","2"
"2087623172827433","3","-1.661","0.165","9.692","none","2"
"2087623192823981","3","-1.663","0.163","9.685","none","2"
"2087623212820582","3","-1.663","0.16","9.69","none","2"
"2087623232816981","3","-1.661","0.172","9.685","none","2"
"2087623252813596","3","-1.656","0.163","9.673","none","2"
"2087623272810150","3","-1.661","0.16","9.685","none","2"
"2087623292806755","3","-1.656","0.151","9.685","none","2"
"2087623312803125","3","-1.654","0.165","9.695","none","2"
"2087623332799740","3","-1.661","0.16","9.673","none","2"
"2087623352796371","3","-1.663","0.155","9.692","none","2"
"2087623372792942","3","-1.67","0.167","9.69","none","2"
"2087623392789341","3","-1.675","0.17","9.683","none","2"
"2087623412785932","3","-1.658","0.16","9.695","none","2"
"2087623432782457","3","-1.651","0.16","9.692","none","2"
"2087623452778842","3","-1.663","0.163","9.673","none","2"
"2087623472775457","3","-1.666","0.148","9.7","none","2"
"2087623492771986","3","-1.661","0.16","9.69","none","2"
"2087623512768582","3","-1.678","0.167","9.69","none","2"
"2087623532765163","3","-1.675","0.167","9.688","none","2"
"2087623552761553","3","-1.651","0.167","9.68","none","2"
"2087623572758081","3","-1.649","0.16","9.704","none","2"
"2087623592754725","3","-1.646","0.158","9.685","none","2"
"2087623612751110","3","-1.67","0.16","9.685","none","2"
"2087623632747735","3","-1.67","0.165","9.707","none","2"
"2087623652744250","3","-1.675","0.172","9.69","none","2"
"2087623672740831","3","-1.663","0.163","9.707","none","2"
"2087623692737211","3","-1.661","0.172","9.671","none","2"
"2087623712733860","3","-1.661","0.155","9.697","none","2"
"2087623732730408","3","-1.663","0.141","9.704","none","2"
"2087623752726778","3","-1.656","0.167","9.666","none","2"
"2087623772723322","3","-1.663","0.155","9.688","none","2"
"2087623792719961","3","-1.654","0.158","9.673","none","2"
"2087623812716572","3","-1.658","0.146","9.676","none","2"
"2087623832712961","3","-1.673","0.16","9.697","none","2"
"2087623852709577","3","-1.673","0.179","9.685","none","2"
"2087623872706130","3","-1.666","0.158","9.683","none","2"
"2087623892702500","3","-1.666","0.158","9.7","none","2"
"2087623912699096","3","-1.651","0.172","9.678","none","2"
"2087623932695630","3","-1.661","0.167","9.68","none","2"
"2087623952692020","3","-1.678","0.16","9.68","none","2"
"2087623972688866","3","-1.668","0.158","9.702","none","2"
"2087623992685159","3","-1.661","0.175","9.688","none","2"
"2087624012681789","3","-1.654","0.165","9.697","none","2"
"2087624032678428","3","-1.666","0.17","9.688","none","2"
"2087624052674837","3","-1.663","0.155","9.7","none","2"
"2087624072671371","3","-1.656","0.148","9.69","none","2"
"2087624092668000","3","-1.663","0.163","9.68","none","2"
"2087624112664371","3","-1.663","0.167","9.68","none","2"
"2087624132660928","3","-1.661","0.167","9.673","none","2"
"2087624152657539","3","-1.661","0.167","9.695","none","2"
"2087624172654154","3","-1.654","0.17","9.69","none","2"
"2087624192650534","3","-1.658","0.16","9.68","none","2"
"2087624212647140","3","-1.668","0.158","9.673","none","2"
"2087624232643674","3","-1.668","0.165","9.702","none","2"
"2087624252640072","3","-1.663","0.163","9.7","none","2"
"2087624272636703","3","-1.663","0.163","9.69","none","2"
"2087624292633226","3","-1.663","0.16","9.68","none","2"
"2087624312629833","3","-1.661","0.155","9.685","none","2"
"2087624332626183","3","-1.656","0.163","9.685","none","2"
"2087624352622780","3","-1.666","0.163","9.695","none","2"
"2087624372619332","3","-1.663","0.155","9.678","none","2"
"2087624392615693","3","-1.673","0.163","9.702","none","2"
"2087624412612342","3","-1.67","0.163","9.702","none","2"
"2087624432608871","3","-1.651","0.163","9.685","none","2"
"2087624452605486","3","-1.651","0.153","9.68","none","2"
"2087624472602102","3","-1.658","0.16","9.68","none","2"
"2087624492598419","3","-1.663","0.16","9.671","none","2"
"2087624512594832","3","-1.656","0.167","9.688","none","2"
"2087624532591697","3","-1.658","0.155","9.678","none","2"
"2087624552588078","3","-1.678","0.165","9.704","none","2"
"2087624572584621","3","-1.658","0.158","9.68","none","2"
"2087624592581246","3","-1.673","0.155","9.69","none","2"
"2087624612577640","3","-1.67","0.175","9.69","none","2"
"2087624632574188","3","-1.678","0.16","9.68","none","2"
"2087624652570799","3","-1.673","0.16","9.685","none","2"
"2087624672567202","3","-1.67","0.175","9.7","none","2"
"2087624692563741","3","-1.658","0.155","9.707","none","2"
"2087624712560337","3","-1.656","0.151","9.683","none","2"
"2087624732556717","3","-1.663","0.182","9.688","none","2"
"2087624752553317","3","-1.675","0.16","9.685","none","2"
"2087624772549933","3","-1.663","0.153","9.69","none","2"
"2087624792546471","3","-1.656","0.17","9.69","none","2"
"2087624812542841","3","-1.675","0.182","9.666","none","2"
"2087624832539427","3","-1.666","0.163","9.678","none","2"
"2087624852535971","3","-1.666","0.153","9.68","none","2"
"2087624872532366","3","-1.663","0.155","9.68","none","2"
"2087624892528904","3","-1.668","0.155","9.69","none","2"
"2087624912525595","3","-1.668","0.167","9.692","none","2"
"2087624932522130","3","-1.661","0.158","9.685","none","2"
"2087624952518462","3","-1.666","0.175","9.68","none","2"
"2087624972515105","3","-1.658","0.175","9.683","none","2"
"2087624992511433","3","-1.666","0.172","9.685","none","2"
"2087625012508269","3","-1.675","0.158","9.69","none","2"
"2087625032504649","3","-1.668","0.167","9.702","none","2"
"2087625052501187","3","-1.654","0.16","9.7","none","2"
"2087625072497582","3","-1.67","0.172","9.695","none","2"
"2087625092494201","3","-1.661","0.182","9.68","none","2"
"2087625112490740","3","-1.67","0.167","9.685","none","2"
"2087625132487341","3","-1.678","0.17","9.695","none","2"
"2087625152483716","3","-1.663","0.163","9.695","none","2"
"2087625172480254","3","-1.673","0.158","9.697","none","2"
"2087625192476615","3","-1.675","0.172","9.676","none","2"
"2087625212473446","3","-1.658","0.163","9.678","none","2"
"2087625232469846","3","-1.644","0.163","9.692","none","2"
"2087625252466188","3","-1.661","0.155","9.671","none","2"
"2087625272462769","3","-1.656","0.16","9.704","none","2"
"2087625292459384","3","-1.666","0.165","9.69","none","2"
"2087625312455932","3","-1.668","0.17","9.692","none","2"
"2087625332452547","3","-1.663","0.172","9.7","none","2"
"2087625352448923","3","-1.656","0.163","9.692","none","2"
"2087625372445462","3","-1.666","0.165","9.685","none","2"
"2087625392442072","3","-1.666","0.163","9.685","none","2"
"2087625412438476","3","-1.658","0.153","9.685","none","2"
"2087625432435024","3","-1.673","0.146","9.685","none","2"
"2087625452431635","3","-1.663","0.175","9.683","none","2"
"2087625472428245","3","-1.668","0.167","9.688","none","2"
"2087625492424577","3","-1.67","0.16","9.678","none","2"
"2087625512421173","3","-1.666","0.16","9.69","none","2"
"2087625532417765","3","-1.654","0.148","9.697","none","2"
"2087625552414168","3","-1.651","0.16","9.676","none","2"
"2087625572410697","3","-1.668","0.16","9.688","none","2"
"2087625592407326","3","-1.658","0.167","9.683","none","2"
"2087625612403721","3","-1.673","0.16","9.692","none","2"
"2087625632400254","3","-1.663","0.165","9.697","none","2"
"2087625652396865","3","-1.656","0.155","9.666","none","2"
"2087625672393259","3","-1.649","0.158","9.683","none","2"
"2087625692389827","3","-1.675","0.163","9.69","none","2"
"2087625712386417","3","-1.67","0.165","9.692","none","2"
"2087625732382802","3","-1.666","0.153","9.683","none","2"
"2087625752379346","3","-1.661","0.163","9.685","none","2"
"2087625772375740","3","-1.668","0.177","9.702","none","2"
"2087625792372365","3","-1.661","0.165","9.697","none","2"
"2087625812368879","3","-1.663","0.165","9.707","none","2"
"2087625832365505","3","-1.68","0.167","9.695","none","2"
"2087625852362096","3","-1.663","0.16","9.692","none","2"
"2087625872358403","3","-1.661","0.165","9.7","none","2"
"2087625892355014","3","-1.668","0.155","9.704","none","2"
"2087625912351394","3","-1.67","0.153","9.666","none","2"
"2087625932348028","3","-1.663","0.16","9.671","none","2"
"2087625952344336","3","-1.673","0.16","9.69","none","2"
"2087625972341153","3","-1.663","0.155","9.702","none","2"
"2087625992337451","3","-1.673","0.155","9.688","none","2"
"2087626012334071","3","-1.666","0.184","9.673","none","2"
"2087626032330702","3","-1.656","0.151","9.688","none","2"
"2087626052327091","3","-1.666","0.158","9.685","none","2"
"2087626072323697","3","-1.661","0.175","9.692","none","2"
"2087626092320254","3","-1.661","0.17","9.704","none","2"
"2087626112316668","3","-1.673","0.17","9.68","none","2"
"2087626132313221","3","-1.666","0.16","9.707","none","2"
"2087626152309836","3","-1.663","0.165","9.685","none","2"
"2087626172306211","3","-1.668","0.163","9.668","none","2"
"2087626192302764","3","-1.68","0.172","9.69","none","2"
"2087626212299389","3","-1.678","0.165","9.692","none","2"
"2087626232295740","3","-1.68","0.163","9.676","none","2"
"2087626252292269","3","-1.678","0.155","9.683","none","2"
"2087626272288884","3","-1.666","0.165","9.688","none","2"
"2087626292285269","3","-1.658","0.167","9.678","none","2"
"2087626312281816","3","-1.663","0.175","9.69","none","2"
"2087626332278182","3","-1.666","0.165","9.688","none","2"
"2087626352275038","3","-1.666","0.155","9.688","none","2"
"2087626372271350","3","-1.675","0.17","9.69","none","2"
"2087626392267971","3","-1.666","0.151","9.697","none","2"
"2087626412264586","3","-1.666","0.163","9.671","none","2"
"2087626432260884","3","-1.673","0.167","9.671","none","2"
"2087626452257519","3","-1.673","0.143","9.69","none","2"
"2087626472253899","3","-1.661","0.155","9.697","none","2"
"2087626492250441","3","-1.675","0.143","9.68","none","2"
"2087626512246826","3","-1.673","0.175","9.695","none","2"
"2087626532243456","3","-1.673","0.167","9.688","none","2"
"2087626552240019","3","-1.68","0.17","9.69","none","2"
"2087626572236619","3","-1.668","0.155","9.688","none","2"
"2087626592233004","3","-1.68","0.163","9.707","sit down","2"
"2087626612229576","3","-1.685","0.146","9.692","sit down","2"
"2087626632226163","3","-1.675","0.175","9.673","sit down","2"
"2087626652222548","3","-1.666","0.189","9.692","sit down","2"
"2087626672219086","3","-1.675","0.177","9.695","sit down","2"
"2087626692215471","3","-1.673","0.153","9.673","sit down","2"
"2087626712212293","3","-1.668","0.163","9.678","sit down","2"
"2087626732208610","3","-1.687","0.172","9.683","sit down","2"
"2087626752205206","3","-1.675","0.158","9.69","sit down","2"
"2087626772201833","3","-1.663","0.148","9.683","sit down","2"
"2087626792198159","3","-1.663","0.16","9.68","sit down","2"
"2087626812194775","3","-1.661","0.172","9.69","sit down","2"
"2087626832191390","3","-1.668","0.167","9.683","sit down","2"
"2087626852187669","3","-1.673","0.165","9.7","sit down","2"
"2087626872184289","3","-1.668","0.167","9.688","sit down","2"
"2087626892180688","3","-1.682","0.155","9.683","sit down","2"
"2087626912177208","3","-1.675","0.16","9.671","sit down","2"
"2087626932173808","3","-1.678","0.17","9.68","sit down","2"
"2087626952170438","3","-1.668","0.167","9.69","sit down","2"
"2087626972166731","3","-1.675","0.165","9.678","sit down","2"
"2087626992163111","3","-1.682","0.155","9.683","sit down","2"
"2087627012159731","3","-1.673","0.16","9.7","sit down","2"
"2087627032156347","3","-1.668","0.17","9.69","sit down","2"
"2087627052152683","3","-1.656","0.167","9.69","sit down","2"
"2087627072149222","3","-1.668","0.17","9.68","sit down","2"
"2087627092145851","3","-1.68","0.155","9.685","sit down","2"
"2087627112142443","3","-1.67","0.153","9.688","sit down","2"
"2087627132138832","3","-1.666","0.17","9.676","sit down","2"
"2087627152135453","3","-1.666","0.167","9.683","sit down","2"
"2087627172131976","3","-1.673","0.16","9.688","sit down","2"
"2087627192128318","3","-1.666","0.167","9.688","sit down","2"
"2087627212124943","3","-1.675","0.175","9.709","sit down","2"
"2087627232121322","3","-1.663","0.175","9.7","sit down","2"
"2087627252117919","3","-1.668","0.167","9.688","sit down","2"
"2087627272114549","3","-1.661","0.165","9.676","sit down","2"
"2087627292110856","3","-1.661","0.158","9.683","sit down","2"
"2087627312107457","3","-1.661","0.158","9.704","sit down","2"
"2087627332104030","3","-1.673","0.165","9.692","sit down","2"
"2087627352100327","3","-1.673","0.17","9.69","sit down","2"
"2087627372096861","3","-1.678","0.158","9.697","sit down","2"
"2087627392093491","3","-1.682","0.158","9.69","sit down","2"
"2087627412089871","3","-1.661","0.17","9.695","sit down","2"
"2087627432086400","3","-1.651","0.17","9.678","sit down","2"
"2087627452083001","3","-1.656","0.16","9.683","sit down","2"
"2087627472079601","3","-1.675","0.155","9.683","sit down","2"
"2087627492075885","3","-1.661","0.146","9.68","sit down","2"
"2087627512072491","3","-1.675","0.163","9.678","sit down","2"
"2087627532068871","3","-1.682","0.163","9.688","sit down","2"
"2087627552065410","3","-1.663","0.165","9.678","sit down","2"
"2087627572061798","3","-1.668","0.16","9.695","sit down","2"
"2087627592058357","3","-1.668","0.172","9.685","sit down","2"
"2087627612054971","3","-1.67","0.165","9.676","sit down","2"
"2087627632051380","3","-1.661","0.177","9.671","sit down","2"
"2087627652047980","3","-1.663","0.17","9.707","sit down","2"
"2087627672044524","3","-1.678","0.151","9.688","sit down","2"
"2087627692041134","3","-1.692","0.165","9.678","sit down","2"
"2087627712037519","3","-1.673","0.165","9.678","sit down","2"
"2087627732034077","3","-1.663","0.153","9.704","sit down","2"
"2087627752030466","3","-1.656","0.179","9.642","sit down","2"
"2087627772027091","3","-1.773","0.232","9.381","sit down","2"
"2087627792023634","3","-2.209","0.294","8.873","sit down","2"
"2087627812020029","3","-2.597","0.036","7.467","sit down","2"
"2087627832016663","3","-2.969","0.313","6.234","sit down","2"
"2087627852013188","3","-3.349","0.721","9.556","sit down","2"
"2087627872009798","3","-3.986","-0.446","16.686","sit down","2"
"2087627892006183","3","-2.399","0.424","10.528","sit down","2"
"2087627912002706","3","0.183","0.871","4.613","sit down","2"
"2087627931999081","3","1.67","0.048","6.574","sit down","2"
"2087627951995616","3","1.763","-1.239","13.91","sit down","2"
"2087627971992235","3","1.045","-0.424","15.036","sit down","2"
"2087627991988543","3","0.629","0.304","7.98","sit down","2"
"2087628011985250","3","-0.006","-0.276","8.959","sit down","2"
"2087628031981543","3","-0.791","-0.12","11.687","sit down","2"
"2087628051978163","3","-0.636","-0.115","9.872","sit down","2"
"2087628071974702","3","-0.526","-0.302","9.767","sit down","2"
"2087628091971096","3","-1.314","0.189","9.951","sit down","2"
"2087628111967586","3","-2.066","0.397","9.218","sit down","2"
"2087628131963966","3","-2.066","0.275","9.271","sit down","2"
"2087628151960837","3","-1.637","0.153","9.549","sit down","2"
"2087628171957144","3","-1.402","0.091","9.654","sit down","2"
"2087628191953774","3","-1.481","0.151","9.453","sit down","2"
"2087628211950168","3","-1.596","0.198","9.616","sit down","2"
"2087628231946716","3","-1.452","0.045","9.671","sit down","2"
"2087628251943327","3","-1.285","0.093","9.628","sit down","2"
"2087628271939730","3","-1.184","0.036","9.68","sit down","2"
"2087628291936284","3","-1.172","0.163","9.688","sit down","2"
"2087628311932644","3","-1.062","0.124","9.807","sit down","2"
"2087628331929236","3","-0.933","0.031","9.867","sit down","2"
"2087628351925759","3","-0.825","0.048","9.769","sit down","2"
"2087628371922173","3","-0.717","-0.019","9.901","sit down","2"
"2087628391918726","3","-0.538","-0.108","10.042","sit down","2"
"2087628411915360","3","-0.475","-0.06","10.066","sit down","2"
"2087628431911721","3","-0.501","-0.067","9.939","sit down","2"
"2087628451908322","3","-0.595","-0.07","9.994","sit down","2"
"2087628471904635","3","-0.691","-0.029","10.02","sit down","2"
"2087628491901182","3","-0.684","-0.055","10.018","sit down","2"
"2087628511897789","3","-0.784","-0.015","9.982","sit down","2"
"2087628531894379","3","-0.954","0.021","9.838","sit down","2"
"2087628551890683","3","-0.973","0.04","9.795","sit down","2"
"2087628571887331","3","-0.954","0.043","9.798","sit down","2"
"2087628591883731","3","-1.029","0.088","9.743","sit down","2"
"2087628611880273","3","-1.122","0.093","9.707","sit down","2"
"2087628631876875","3","-1.117","0.098","9.668","sit down","2"
"2087628651873231","3","-1.086","0.107","9.678","sit down","2"
"2087628671869788","3","-1.117","0.079","9.764","sit down","2"
"2087628691866183","3","-1.062","0.072","9.683","sit down","2"
"2087628711862779","3","-0.993","0.069","9.719","sit down","2"
"2087628731859333","3","-1.029","0.069","9.791","sit down","2"
"2087628751855972","3","-0.99","0.064","9.769","sit down","2"
"2087628771852289","3","-0.914","0.06","9.783","sit down","2"
"2087628791848698","3","-0.918","0.045","9.831","sit down","2"
"2087628811845308","3","-0.909","0.014","9.87","sit down","2"
"2087628831841933","3","-0.885","0.004","9.891","sit down","2"
"2087628851838251","3","-0.921","0.012","9.903","sit down","2"
"2087628871834814","3","-0.923","0.019","9.831","sit down","2"
"2087628891831433","3","-0.926","0.038","9.834","sit down","2"
"2087628911827847","3","-0.942","0.028","9.853","sit down","2"
"2087628931824486","3","-0.938","0.033","9.853","sit down","2"
"2087628951820996","3","-0.952","0.024","9.829","sit down","2"
"2087628971817395","3","-0.969","0.024","9.812","sit down","2"
"2087628991813683","3","-0.971","0.031","9.822","sit down","2"
"2087629011810280","3","-1.016","0.074","9.793","sit down","2"
"2087629031806881","3","-1.045","0.045","9.764","sit down","2"
"2087629051803409","3","-1.055","0.05","9.786","sit down","2"
"2087629071800025","3","-1.031","0.05","9.733","sit down","2"
"2087629091796333","3","-1.024","0.057","9.783","sit down","2"
"2087629111792933","3","-1.021","0.055","9.788","sit down","2"
"2087629131789318","3","-0.983","0.064","9.791","sit down","2"
"2087629151785837","3","-1.008","0.04","9.791","sit down","2"
"2087629171782232","3","-0.99","0.038","9.807","sit down","2"
