"Timestamp","Accuracy","Acceleration X","Acceleration Y","Acceleration Z","Label","Cycle"
"14707150701828","3","0.58418524","0.0023942017","9.481039","stand up","0"
"14707170660324","3","0.50517654","-0.01436521","9.119514","none","1"
"14707190618820","3","0.47165772","-0.08379706","9.600749","none","1"
"14707210577316","3","0.46686932","-0.088585466","9.526528","none","1"
"14707230535812","3","0.6919243","-0.05267244","9.337387","none","1"
"14707250524826","3","0.40462008","-0.079008654","9.440337","none","1"
"14707270483322","3","0.46926352","-0.079008654","9.469068","none","1"
"14707290472336","3","0.49081135","-0.076614454","9.457097","none","1"
"14707310430832","3","0.47405192","-0.076614454","9.466674","none","1"
"14707330389328","3","0.47644615","-0.06464344","9.461885","none","1"
"14707350347824","3","0.47884035","-0.076614454","9.459491","none","1"
"14707370306320","3","0.48123455","-0.059855044","9.466674","none","1"
"14707390264816","3","0.47884035","-0.06464344","9.464279","none","1"
"14707410223312","3","0.48123455","-0.074220255","9.44752","none","1"
"14707430181808","3","0.48123455","-0.076614454","9.457097","none","1"
"14707450140305","3","0.48362875","-0.06943185","9.461885","none","1"
"14707470098801","3","0.47644615","-0.06943185","9.464279","none","1"
"14707490057297","3","0.47884035","-0.07182605","9.457097","none","1"
"14707510015793","3","0.47405192","-0.076614454","9.454702","none","1"
"14707529974289","3","0.47884035","-0.06943185","9.457097","none","1"
"14707549932785","3","0.47884035","-0.07182605","9.469068","none","1"
"14707569891281","3","0.48123455","-0.076614454","9.464279","none","1"
"14707589880295","3","0.48602295","-0.076614454","9.476251","none","1"
"14707609838791","3","0.47884035","-0.076614454","9.461885","none","1"
"14707629797287","3","0.47405192","-0.074220255","9.459491","none","1"
"14707649755783","3","0.47165772","-0.06943185","9.461885","none","1"
"14707669714279","3","0.48602295","-0.06943185","9.459491","none","1"
"14707689672775","3","0.48362875","-0.07182605","9.469068","none","1"
"14707709661789","3","0.46926352","-0.074220255","9.461885","none","1"
"14707729620285","3","0.47644615","-0.074220255","9.452309","none","1"
"14707749578781","3","0.47405192","-0.06464344","9.459491","none","1"
"14707769537277","3","0.47405192","-0.06943185","9.454702","none","1"
"14707789495773","3","0.47884035","-0.06943185","9.466674","none","1"
"14707809454269","3","0.47884035","-0.074220255","9.461885","none","1"
"14707829382248","3","0.48123455","-0.07182605","9.461885","none","1"
"14707849340744","3","0.47644615","-0.059855044","9.44752","none","1"
"14707869299240","3","0.47165772","-0.062249243","9.459491","none","1"
"14707889257736","3","0.47884035","-0.062249243","9.452309","none","1"
"14707909216232","3","0.47405192","-0.074220255","9.44752","none","1"
"14707929144211","3","0.48123455","-0.06943185","9.464279","none","1"
"14707949102707","3","0.47884035","-0.06943185","9.461885","none","1"
"14707969061203","3","0.47884035","-0.06464344","9.457097","none","1"
"14707989019699","3","0.46447513","-0.06464344","9.464279","none","1"
"14708008978195","3","0.47165772","-0.076614454","9.452309","none","1"
"14708028936691","3","0.47884035","-0.06943185","9.473856","none","1"
"14708048895187","3","0.46926352","-0.06703765","9.473856","none","1"
"14708068853683","3","0.47165772","-0.07182605","9.464279","none","1"
"14708088812180","3","0.47405192","-0.06703765","9.445126","none","1"
"14708108770676","3","0.48123455","-0.06943185","9.452309","none","1"
"14708128698654","3","0.47644615","-0.074220255","9.449914","none","1"
"14708148687668","3","0.47405192","-0.074220255","9.457097","none","1"
"14708168676681","3","0.46686932","-0.06943185","9.466674","none","1"
"14708188635178","3","0.47405192","-0.06943185","9.466674","none","1"
"14708208593674","3","0.47405192","-0.06943185","9.454702","none","1"
"14708228521652","3","0.47165772","-0.06943185","9.457097","none","1"
"14708248510666","3","0.47644615","-0.076614454","9.471462","none","1"
"14708268469162","3","0.47405192","-0.06703765","9.473856","none","1"
"14708288427658","3","0.47884035","-0.076614454","9.464279","none","1"
"14708308386154","3","0.48123455","-0.07182605","9.457097","none","1"
"14708328375168","3","0.47405192","-0.062249243","9.459491","none","1"
"14708348333664","3","0.47644615","-0.06943185","9.459491","none","1"
"14708368292160","3","0.48123455","-0.06464344","9.454702","none","1"
"14708388281174","3","0.48362875","-0.074220255","9.466674","none","1"
"14708408239670","3","0.47405192","-0.07182605","9.469068","none","1"
"14708428198166","3","0.46447513","-0.076614454","9.461885","none","1"
"14708448156662","3","0.46686932","-0.06703765","9.454702","none","1"
"14708468115158","3","0.47405192","-0.06703765","9.457097","none","1"
"14708488073654","3","0.47405192","-0.07182605","9.461885","none","1"
"14708508032150","3","0.47165772","-0.06943185","9.471462","none","1"
"14708527990646","3","0.47644615","-0.062249243","9.471462","none","1"
"14708547949142","3","0.48841715","-0.06464344","9.469068","none","1"
"14708567907639","3","0.47405192","-0.07182605","9.449914","none","1"
"14708587866135","3","0.46447513","-0.079008654","9.44752","none","1"
"14708607824631","3","0.47644615","-0.05746084","9.464279","none","1"
"14708627783127","3","0.47884035","-0.06464344","9.466674","none","1"
"14708647741623","3","0.47165772","-0.06703765","9.461885","none","1"
"14708667700119","3","0.46926352","-0.074220255","9.461885","none","1"
"14708687658615","3","0.46447513","-0.076614454","9.459491","none","1"
"14708707617111","3","0.47165772","-0.076614454","9.454702","none","1"
"14708727545090","3","0.46926352","-0.074220255","9.469068","none","1"
"14708747503586","3","0.48362875","-0.06703765","9.457097","none","1"
"14708767492599","3","0.46926352","-0.06464344","9.461885","none","1"
"14708787451096","3","0.46447513","-0.074220255","9.464279","none","1"
"14708807440109","3","0.48362875","-0.062249243","9.445126","none","1"
"14708827398605","3","0.46926352","-0.06943185","9.459491","none","1"
"14708847357101","3","0.47884035","-0.079008654","9.466674","none","1"
"14708867315598","3","0.48123455","-0.06464344","9.464279","none","1"
"14708887274094","3","0.46926352","-0.074220255","9.454702","none","1"
"14708907263107","3","0.46447513","-0.06943185","9.464279","none","1"
"14708927221603","3","0.46447513","-0.062249243","9.461885","none","1"
"14708947180099","3","0.46686932","-0.07182605","9.457097","none","1"
"14708967138596","3","0.46926352","-0.088585466","9.461885","none","1"
"14708987097092","3","0.48602295","-0.06703765","9.461885","none","1"
"14709007055588","3","0.47884035","-0.07182605","9.464279","none","1"
"14709026983566","3","0.47165772","-0.06464344","9.457097","none","1"
"14709046972580","3","0.48602295","-0.074220255","9.449914","none","1"
"14709066961594","3","0.47644615","-0.062249243","9.471462","none","1"
"14709086920090","3","0.47644615","-0.06943185","9.461885","none","1"
"14709106909103","3","0.47884035","-0.062249243","9.473856","none","1"
"14709126867599","3","0.46208093","-0.076614454","9.466674","none","1"
"14709146826096","3","0.46926352","-0.08140286","9.449914","none","1"
"14709166784592","3","0.47884035","-0.06464344","9.464279","none","1"
"14709186743088","3","0.47644615","-0.07182605","9.454702","none","1"
"14709206701584","3","0.47165772","-0.06464344","9.471462","none","1"
"14709226660080","3","0.48362875","-0.06703765","9.478644","none","1"
"14709246649094","3","0.46926352","-0.06943185","9.452309","none","1"
"14709266607590","3","0.47165772","-0.07182605","9.452309","none","1"
"14709286566086","3","0.47165772","-0.06943185","9.454702","none","1"
"14709306524582","3","0.47884035","-0.06943185","9.459491","none","1"
"14709326483078","3","0.47405192","-0.076614454","9.464279","none","1"
"14709346441574","3","0.48123455","-0.079008654","9.473856","none","1"
"14709366400070","3","0.46686932","-0.07182605","9.454702","none","1"
"14709386358566","3","0.47884035","-0.06464344","9.454702","none","1"
"14709406317062","3","0.47165772","-0.06943185","9.452309","none","1"
"14709426275558","3","0.47644615","-0.06703765","9.464279","none","1"
"14709446234055","3","0.48123455","-0.074220255","9.471462","none","1"
"14709466192551","3","0.48362875","-0.06943185","9.471462","none","1"
"14709486151047","3","0.47405192","-0.06703765","9.466674","none","1"
"14709506109543","3","0.47644615","-0.062249243","9.452309","none","1"
"14709526068039","3","0.47165772","-0.06943185","9.457097","none","1"
"14709546026535","3","0.47405192","-0.07182605","9.461885","none","1"
"14709565985031","3","0.46447513","-0.076614454","9.478644","none","1"
"14709585943527","3","0.48841715","-0.06703765","9.464279","none","1"
"14709605902023","3","0.48123455","-0.06703765","9.452309","none","1"
"14709625860519","3","0.46447513","-0.076614454","9.445126","none","1"
"14709645849533","3","0.46926352","-0.07182605","9.457097","none","1"
"14709665838547","3","0.46686932","-0.06703765","9.466674","none","1"
"14709685766525","3","0.47644615","-0.06943185","9.466674","none","1"
"14709705786056","3","0.48123455","-0.07182605","9.464279","none","1"
"14709725744553","3","0.46208093","-0.074220255","9.466674","none","1"
"14709745703049","3","0.47644615","-0.074220255","9.445126","none","1"
"14709765661545","3","0.46686932","-0.06464344","9.476251","none","1"
"14709785620041","3","0.47884035","-0.06703765","9.478644","none","1"
"14709805578537","3","0.47165772","-0.074220255","9.464279","none","1"
"14709825537033","3","0.47884035","-0.06703765","9.478644","none","1"
"14709845495529","3","0.47165772","-0.07182605","9.459491","none","1"
"14709865454025","3","0.47884035","-0.079008654","9.445126","none","1"
"14709885412521","3","0.45968673","-0.07182605","9.452309","none","1"
"14709905371017","3","0.47644615","-0.076614454","9.471462","none","1"
"14709925329514","3","0.47405192","-0.06464344","9.473856","none","1"
"14709945288010","3","0.47405192","-0.079008654","9.478644","none","1"
"14709965246506","3","0.47165772","-0.06703765","9.457097","none","1"
"14709985205002","3","0.46686932","-0.06703765","9.449914","none","1"
"14710005163498","3","0.47165772","-0.06703765","9.461885","none","1"
"14710025121994","3","0.47165772","-0.07182605","9.461885","none","1"
"14710045111008","3","0.46926352","-0.06703765","9.473856","none","1"
"14710065069504","3","0.47884035","-0.06464344","9.471462","none","1"
"14710085028000","3","0.47884035","-0.074220255","9.464279","none","1"
"14710104986496","3","0.47165772","-0.07182605","9.454702","none","1"
"14710124944992","3","0.47405192","-0.06703765","9.454702","none","1"
"14710144903488","3","0.46686932","-0.06943185","9.461885","none","1"
"14710164861984","3","0.47644615","-0.074220255","9.471462","none","1"
"14710184820480","3","0.47884035","-0.074220255","9.469068","none","1"
"14710204778976","3","0.47644615","-0.06943185","9.44752","none","1"
"14710224737473","3","0.47165772","-0.062249243","9.44752","none","1"
"14710244695969","3","0.47165772","-0.06703765","9.445126","none","1"
"14710264654465","3","0.47644615","-0.074220255","9.464279","none","1"
"14710284612961","3","0.47644615","-0.062249243","9.459491","none","1"
"14710304571457","3","0.47165772","-0.06943185","9.469068","none","1"
"14710324529953","3","0.46926352","-0.059855044","9.469068","none","1"
"14710344488449","3","0.47884035","-0.06943185","9.452309","none","1"
"14710364446945","3","0.47165772","-0.06943185","9.454702","none","1"
"14710384405441","3","0.47405192","-0.07182605","9.473856","none","1"
"14710404363937","3","0.47884035","-0.062249243","9.469068","none","1"
"14710424322433","3","0.48123455","-0.062249243","9.473856","none","1"
"14710444280930","3","0.47165772","-0.076614454","9.461885","none","1"
"14710464239426","3","0.47405192","-0.06703765","9.440337","none","1"
"14710484197922","3","0.46926352","-0.06943185","9.454702","none","1"
"14710504156418","3","0.47405192","-0.079008654","9.461885","none","1"
"14710524114914","3","0.46686932","-0.06943185","9.461885","none","1"
"14710544103928","3","0.47405192","-0.07182605","9.483433","none","1"
"14710564062424","3","0.46686932","-0.06943185","9.464279","none","1"
"14710584020920","3","0.46447513","-0.06943185","9.445126","none","1"
"14710603979416","3","0.47165772","-0.06943185","9.454702","none","1"
"14710623937912","3","0.47405192","-0.06943185","9.471462","none","1"
"14710643896408","3","0.46926352","-0.074220255","9.469068","none","1"
"14710663854904","3","0.47644615","-0.06703765","9.459491","none","1"
"14710683813400","3","0.46447513","-0.074220255","9.464279","none","1"
"14710703771896","3","0.47165772","-0.074220255","9.457097","none","1"
"14710723730392","3","0.47405192","-0.07182605","9.454702","none","1"
"14710743688889","3","0.46926352","-0.06703765","9.452309","none","1"
"14710763647385","3","0.47165772","-0.06943185","9.469068","none","1"
"14710783605881","3","0.47405192","-0.06943185","9.466674","none","1"
"14710803564377","3","0.47405192","-0.062249243","9.459491","none","1"
"14710823522873","3","0.46926352","-0.06703765","9.454702","none","1"
"14710843481369","3","0.47405192","-0.06703765","9.457097","none","1"
"14710863439865","3","0.47405192","-0.06943185","9.461885","none","1"
"14710883398361","3","0.47884035","-0.062249243","9.466674","none","1"
"14710903356857","3","0.48123455","-0.076614454","9.464279","none","1"
"14710923315353","3","0.47165772","-0.074220255","9.466674","none","1"
"14710943273849","3","0.46926352","-0.06464344","9.461885","none","1"
"14710963232346","3","0.46926352","-0.06464344","9.452309","none","1"
"14710983190842","3","0.47165772","-0.06943185","9.459491","none","1"
"14711003149338","3","0.46926352","-0.06943185","9.461885","none","1"
"14711023107834","3","0.47165772","-0.059855044","9.464279","none","1"
"14711043035812","3","0.47165772","-0.079008654","9.469068","none","1"
"14711063024826","3","0.46208093","-0.06943185","9.461885","none","1"
"14711083013840","3","0.47405192","-0.06464344","9.459491","none","1"
"14711103002853","3","0.46208093","-0.059855044","9.44752","sit down","1"
"14711122961349","3","0.47884035","-0.074220255","9.459491","sit down","1"
"14711142919846","3","0.46686932","-0.05267244","9.459491","sit down","1"
"14711162878342","3","0.46447513","-0.079008654","9.459491","sit down","1"
"14711182836838","3","0.47165772","-0.06464344","9.466674","sit down","1"
"14711202795334","3","0.46447513","-0.06943185","9.459491","sit down","1"
"14711222753830","3","0.47405192","-0.076614454","9.464279","sit down","1"
"14711242712326","3","0.47165772","-0.079008654","9.461885","sit down","1"
"14711262670822","3","0.47165772","-0.079008654","9.452309","sit down","1"
"14711282629318","3","0.46926352","-0.07182605","9.466674","sit down","1"
"14711302618332","3","0.46447513","-0.06703765","9.466674","sit down","1"
"14711322576828","3","0.47165772","-0.06464344","9.457097","sit down","1"
"14711342535324","3","0.47884035","-0.06943185","9.457097","sit down","1"
"14711362463303","3","0.47405192","-0.07182605","9.452309","sit down","1"
"14711382421799","3","0.46926352","-0.06464344","9.473856","sit down","1"
"14711402380295","3","0.46447513","-0.062249243","9.469068","sit down","1"
"14711422338791","3","0.47165772","-0.06464344","9.459491","sit down","1"
"14711442297287","3","0.47884035","-0.06703765","9.454702","sit down","1"
"14711462225265","3","0.46926352","-0.074220255","9.461885","sit down","1"
"14711482214279","3","0.47644615","-0.074220255","9.461885","sit down","1"
"14711502203293","3","0.47644615","-0.06703765","9.461885","sit down","1"
"14711522192306","3","0.47405192","-0.06943185","9.478644","sit down","1"
"14711542150803","3","0.46686932","-0.07182605","9.452309","sit down","1"
"14711562078781","3","0.48123455","-0.062249243","9.440337","sit down","1"
"14711582067795","3","0.47405192","-0.06464344","9.449914","sit down","1"
"14711602026291","3","0.47884035","-0.06943185","9.459491","sit down","1"
"14711621984787","3","0.46686932","-0.06703765","9.461885","sit down","1"
"14711641943283","3","0.48362875","-0.06703765","9.459491","sit down","1"
"14711661901779","3","0.47165772","-0.06943185","9.44752","sit down","1"
"14711681860275","3","0.47165772","-0.059855044","9.471462","sit down","1"
"14711701818771","3","0.47644615","-0.07182605","9.461885","sit down","1"
"14711721777267","3","0.47165772","-0.074220255","9.452309","sit down","1"
"14711741735764","3","0.47405192","-0.07182605","9.466674","sit down","1"
"14711761694260","3","0.47405192","-0.076614454","9.466674","sit down","1"
"14711781683273","3","0.46926352","-0.076614454","9.464279","sit down","1"
"14711801641769","3","0.46686932","-0.06943185","9.466674","sit down","1"
"14711821600265","3","0.48602295","-0.06464344","9.423578","sit down","1"
"14711841528244","3","0.47644615","-0.06943185","9.423578","sit down","1"
"14711861486740","3","0.45968673","-0.079008654","9.466674","sit down","1"
"14711881445236","3","0.48123455","-0.07182605","9.488221","sit down","1"
"14711901403732","3","0.47165772","-0.05746084","9.464279","sit down","1"
"14711921362228","3","0.47644615","-0.062249243","9.457097","sit down","1"
"14711941320724","3","0.47165772","-0.07182605","9.471462","sit down","1"
"14711961279221","3","0.47405192","-0.08140286","9.459491","sit down","1"
"14711981237717","3","0.47165772","-0.076614454","9.466674","sit down","1"
"14712001196213","3","0.47165772","-0.06943185","9.483433","sit down","1"
"14712021185226","3","0.46926352","-0.074220255","9.459491","sit down","1"
"14712041143723","3","0.47405192","-0.079008654","9.459491","sit down","1"
"14712061102219","3","0.48362875","-0.07182605","9.452309","sit down","1"
"14712081060715","3","0.48841715","-0.06703765","9.454702","sit down","1"
"14712101019211","3","0.47644615","-0.074220255","9.454702","sit down","1"
"14712120977707","3","0.47644615","-0.06943185","9.469068","sit down","1"
"14712140966721","3","0.47884035","-0.07182605","9.469068","sit down","1"
"14712160955734","3","0.47644615","-0.06703765","9.466674","sit down","1"
"14712180914230","3","0.47884035","-0.06464344","9.454702","sit down","1"
"14712200872726","3","0.46686932","-0.06943185","9.459491","sit down","1"
"14712220800705","3","0.47644615","-0.06703765","9.473856","sit down","1"
"14712240789719","3","0.47884035","-0.05746084","9.478644","sit down","1"
"14712260748215","3","0.47644615","-0.074220255","9.461885","sit down","1"
"14712280737228","3","0.46926352","-0.06464344","9.437943","sit down","1"
"14712300695724","3","0.45489833","-0.088585466","9.466674","sit down","1"
"14712320654221","3","0.49559975","-0.06943185","9.5385","sit down","1"
"14712340612717","3","0.50517654","-0.074220255","9.457097","sit down","1"
"14712360571213","3","0.5386954","-0.06703765","9.459491","sit down","1"
"14712380529709","3","0.7278373","0.23223756","8.954314","sit down","1"
"14712400488205","3","0.22744916","-0.055066638","9.26556","sit down","1"
"14712420446701","3","0.4237737","0.05267244","9.64145","sit down","1"
"14712440405197","3","0.5410896","-0.2633622","10.156203","sit down","1"
"14712460363693","3","0.3878607","-0.15083471","9.703699","sit down","1"
"14712480322189","3","0.44532153","-0.04070143","9.325416","sit down","1"
"14712500280685","3","0.47405192","-0.079008654","9.514558","sit down","1"
"14712520239181","3","0.45729253","-0.05267244","9.346964","sit down","1"
"14712540197678","3","0.45968673","-0.05746084","9.32781","sit down","1"
"14712560156174","3","0.47884035","-0.059855044","9.457097","sit down","1"
"14712580114670","3","0.46926352","-0.059855044","9.459491","sit down","1"
"14712600073166","3","0.47884035","-0.07182605","9.425972","sit down","1"
"14712620031662","3","0.49081135","-0.06464344","9.425972","sit down","1"
"14712639990158","3","0.50278234","-0.06464344","9.414001","sit down","1"
"14712659948654","3","0.50517654","-0.059855044","9.423578","sit down","1"
"14712679907150","3","0.50757074","-0.06943185","9.449914","sit down","1"
"14712699865646","3","0.50517654","-0.07182605","9.528923","sit down","1"
"14712719824142","3","0.5291186","-0.059855044","9.500193","sit down","1"
"14712739782639","3","0.50517654","-0.05746084","9.504981","sit down","1"
"14712759771652","3","0.50517654","-0.062249243","9.488221","sit down","1"
"14712779699631","3","0.51475334","-0.055066638","9.445126","sit down","1"
"14712799688644","3","0.49320555","-0.062249243","9.490616","sit down","1"
"14712819647140","3","0.48602295","-0.05746084","9.459491","sit down","1"
"14712839605637","3","0.48841715","-0.050278235","9.464279","sit down","1"
"14712859564133","3","0.48362875","-0.05267244","9.44752","sit down","1"
"14712879522629","3","0.47884035","-0.055066638","9.457097","sit down","1"
"14712899481125","3","0.48602295","-0.05267244","9.433155","sit down","1"
"14712919470139","3","0.48123455","-0.059855044","9.488221","sit down","1"
"14712939428635","3","0.50278234","-0.05746084","9.478644","sit down","1"
"14712959387131","3","0.49320555","-0.05267244","9.416395","sit down","1"
"14712979345627","3","0.48841715","-0.062249243","9.469068","sit down","1"
"14712999304123","3","0.50038815","-0.062249243","9.481039","sit down","1"
"14713019262619","3","0.50038815","-0.038307227","9.414001","sit down","1"
"14713039190598","3","0.51235914","-0.035913024","9.528923","sit down","1"
"14713059179611","3","0.50996494","-0.062249243","9.524135","sit down","1"
"14713079168625","3","0.50517654","-0.059855044","9.392453","sit down","1"
"14713099157639","3","0.49559975","-0.04070143","9.445126","sit down","1"
"14713119116135","3","0.49559975","-0.05267244","9.469068","sit down","1"
"14713139103873","3","0.48841715","-0.06464344","9.435549","sit down","1"
"14713159033127","3","0.49559975","-0.055066638","9.457097","sit down","1"
"14713179022140","3","0.50278234","-0.05267244","9.473856","sit down","1"
"14713198980637","3","0.49799395","-0.062249243","9.442732","sit down","1"
"14713218939133","3","0.49320555","-0.062249243","9.452309","sit down","1"
"14713238928146","3","0.48841715","-0.062249243","9.461885","sit down","1"
"14713258886642","3","0.49320555","-0.047884032","9.469068","sit down","1"
"14713278845139","3","0.49320555","-0.047884032","9.466674","sit down","1"
"14713298803635","3","0.50996494","-0.05267244","9.469068","sit down","1"
"14713318762131","3","0.50278234","-0.055066638","9.461885","sit down","1"
"14713338720627","3","0.49320555","-0.06703765","9.464279","sit down","1"
"14713358679123","3","0.50278234","-0.06703765","9.454702","sit down","1"
"14713378656872","3","0.50038815","-0.05746084","9.461885","sit down","1"
"14713398596115","3","0.49559975","-0.05267244","9.473856","sit down","1"
"14713418585129","3","0.49799395","-0.05267244","9.449914","sit down","1"
"14713438543625","3","0.49320555","-0.055066638","9.461885","sit down","1"
"14713458532639","3","0.48362875","-0.05746084","9.454702","sit down","1"
"14713478521652","3","0.48602295","-0.047884032","9.44752","sit down","1"
"14713498449631","3","0.49320555","-0.047884032","9.459491","sit down","1"
"14713518438644","3","0.49799395","-0.05267244","9.459491","sit down","1"
"14713538397140","3","0.49320555","-0.05267244","9.464279","sit down","1"
"14713558355637","3","0.49081135","-0.047884032","9.471462","sit down","1"
"14713578314133","3","0.49081135","-0.05267244","9.473856","sit down","1"
"14713598272629","3","0.49559975","-0.05746084","9.445126","sit down","1"
"14713618261642","3","0.48602295","-0.05267244","9.459491","sit down","1"
"14713638220139","3","0.49320555","-0.055066638","9.469068","sit down","1"
"14713658178635","3","0.49799395","-0.05267244","9.454702","sit down","1"
"14713678137131","3","0.49799395","-0.045489833","9.461885","sit down","1"
"14713698126144","3","0.48362875","-0.050278235","9.452309","sit down","1"
"14713718084640","3","0.49081135","-0.05267244","9.442732","sit down","1"
"14713738043137","3","0.49081135","-0.055066638","9.459491","sit down","1"
"14713758001633","3","0.50038815","-0.055066638","9.464279","sit down","1"
"14713777960129","3","0.48362875","-0.06703765","9.476251","sit down","1"
"14713797918625","3","0.49799395","-0.050278235","9.469068","sit down","1"
"14713817877121","3","0.48123455","-0.059855044","9.44752","sit down","1"
"14713837835617","3","0.48841715","-0.04309563","9.461885","sit down","1"
"14713857794113","3","0.48841715","-0.05267244","9.461885","sit down","1"
"14713877744603","3","0.49559975","-0.059855044","9.471462","sit down","1"
"14713897711105","3","0.49559975","-0.05746084","9.454702","sit down","1"
"14713917669601","3","0.49081135","-0.059855044","9.464279","sit down","1"
"14713937628098","3","0.48602295","-0.055066638","9.454702","sit down","1"
"14713957586064","3","0.49320555","-0.05746084","9.464279","sit down","1"
"14713977545090","3","0.49799395","-0.05267244","9.459491","sit down","1"
"14713997503586","3","0.49320555","-0.05746084","9.461885","sit down","1"
"14714017462082","3","0.49081135","-0.062249243","9.464279","sit down","1"
"14714037441257","3","0.49320555","-0.055066638","9.461885","sit down","1"
"14714057409592","3","0.49320555","-0.045489833","9.464279","sit down","1"
"14714077368088","3","0.48841715","-0.059855044","9.454702","sit down","1"
"14714097326584","3","0.49320555","-0.055066638","9.466674","sit down","1"
"14714117285080","3","0.49799395","-0.059855044","9.459491","sit down","1"
"14714137243576","3","0.48602295","-0.04070143","9.464279","sit down","1"
"14714157171555","3","0.48123455","-0.055066638","9.459491","sit down","1"
"14714177130051","3","0.49081135","-0.045489833","9.459491","sit down","1"
"14714197058029","3","0.49320555","-0.059855044","9.459491","sit down","1"
"14714217047043","3","0.49320555","-0.05746084","9.454702","sit down","1"
"14714236975021","3","0.49559975","-0.055066638","9.466674","sit down","1"
"14714256964035","3","0.49081135","-0.050278235","9.461885","sit down","1"
"14714276922531","3","0.50278234","-0.059855044","9.459491","sit down","1"
"14714296881027","3","0.48602295","-0.059855044","9.461885","sit down","1"
"14714316824333","3","0.49081135","-0.045489833","9.454702","sit down","1"
"14714336767502","3","0.49799395","-0.06464344","9.464279","sit down","1"
"14714356756515","3","0.49559975","-0.05267244","9.459491","sit down","1"
"14714376715012","3","0.48602295","-0.05746084","9.466674","sit down","1"
"14714396673508","3","0.48602295","-0.055066638","9.471462","sit down","1"
"14714416632004","3","0.49320555","-0.05267244","9.459491","sit down","1"
"14714436590500","3","0.47884035","-0.055066638","9.461885","sit down","1"
"14714456548996","3","0.50996494","-0.059855044","9.461885","sit down","1"
"14714476507492","3","0.50038815","-0.062249243","9.454702","sit down","1"
"14714496465988","3","0.50038815","-0.045489833","9.469068","sit down","1"
"14714516424484","3","0.49559975","-0.059855044","9.473856","sit down","1"
"14714536382980","3","0.48123455","-0.05267244","9.466674","sit down","1"
"14714556341476","3","0.48602295","-0.055066638","9.440337","sit down","1"
"14714576299973","3","0.49081135","-0.045489833","9.461885","sit down","1"
"14714596288986","3","0.48602295","-0.050278235","9.469068","sit down","1"
"14714616247482","3","0.49320555","-0.05746084","9.466674","sit down","1"
"14714636205978","3","0.49320555","-0.06943185","9.461885","sit down","1"
"14714656164474","3","0.49559975","-0.062249243","9.461885","sit down","1"
"14714676122971","3","0.48602295","-0.05267244","9.471462","sit down","1"
"14714696081467","3","0.48841715","-0.05746084","9.464279","sit down","1"
"14714716039963","3","0.49320555","-0.045489833","9.459491","sit down","1"
"14714735998459","3","0.49799395","-0.06464344","9.469068","sit down","1"
"14714755956955","3","0.49081135","-0.05267244","9.454702","sit down","1"
"14714775915451","3","0.49320555","-0.062249243","9.454702","sit down","1"
"14714795873947","3","0.48602295","-0.045489833","9.459491","sit down","1"
"14714815832443","3","0.50517654","-0.07182605","9.471462","sit down","1"
"14714835790939","3","0.49320555","-0.06464344","9.469068","sit down","1"
"14714855749435","3","0.49320555","-0.055066638","9.466674","sit down","1"
"14714875707931","3","0.49320555","-0.050278235","9.469068","sit down","1"
"14714895696945","3","0.48602295","-0.059855044","9.44752","sit down","1"
"14714915655441","3","0.48841715","-0.050278235","9.449914","sit down","1"
"14714935613937","3","0.50038815","-0.05746084","9.466674","sit down","1"
"14714955572433","3","0.49799395","-0.055066638","9.454702","sit down","1"
"14714975530930","3","0.49799395","-0.055066638","9.457097","sit down","1"
"14714995489426","3","0.48841715","-0.059855044","9.466674","sit down","1"
"14715015447922","3","0.49081135","-0.062249243","9.454702","sit down","1"
"14715035406418","3","0.49559975","-0.055066638","9.445126","sit down","1"
"14715055364914","3","0.49081135","-0.059855044","9.466674","sit down","1"
"14715075323410","3","0.49320555","-0.06703765","9.473856","sit down","1"
"14715095281906","3","0.49320555","-0.062249243","9.481039","sit down","1"
"14715115240402","3","0.48602295","-0.059855044","9.478644","lay down","1"
"14715135197217","3","0.48602295","-0.047884032","9.459491","lay down","1"
"14715155147333","3","0.49559975","-0.047884032","9.459491","lay down","1"
"14715175115890","3","0.49559975","-0.050278235","9.459491","lay down","1"
"14715195074387","3","0.48362875","-0.055066638","9.464279","lay down","1"
"14715215032883","3","0.48602295","-0.047884032","9.473856","lay down","1"
"14715234978871","3","0.49081135","-0.055066638","9.457097","lay down","1"
"14715254980392","3","0.49559975","-0.05267244","9.466674","lay down","1"
"14715274938889","3","0.49081135","-0.05746084","9.466674","lay down","1"
"14715294897385","3","0.50038815","-0.059855044","9.459491","lay down","1"
"14715314886398","3","0.49559975","-0.059855044","9.452309","lay down","1"
"14715334844894","3","0.49320555","-0.05746084","9.471462","lay down","1"
"14715354803390","3","0.49320555","-0.062249243","9.454702","lay down","1"
"14715374792404","3","0.49799395","-0.055066638","9.457097","lay down","1"
"14715394744063","3","0.49320555","-0.055066638","9.445126","lay down","1"
"14715414709396","3","0.49081135","-0.06703765","9.464279","lay down","1"
"14715434667892","3","0.49559975","-0.050278235","9.457097","lay down","1"
"14715454626389","3","0.47884035","-0.06703765","9.536105","lay down","1"
"14715474584885","3","0.50517654","-0.06703765","9.509769","lay down","1"
"14715494522102","3","0.48841715","-0.050278235","9.416395","lay down","1"
"14715514481756","3","0.47884035","-0.055066638","9.404425","lay down","1"
"14715534460373","3","0.48362875","-0.05267244","9.504981","lay down","1"
"14715554418869","3","0.48362875","-0.050278235","9.488221","lay down","1"
"14715574377365","3","0.48602295","-0.038307227","9.442732","lay down","1"
"14715594335861","3","0.47884035","-0.055066638","9.437943","lay down","1"
"14715614324875","3","0.47405192","-0.050278235","9.416395","lay down","1"
"14715634271871","3","0.48841715","-0.06464344","9.404425","lay down","1"
"14715654272385","3","0.48602295","-0.05746084","9.524135","lay down","1"
"14715674230881","3","0.51235914","-0.04070143","9.514558","lay down","1"
"14715694189377","3","0.50038815","-0.050278235","9.423578","lay down","1"
"14715714147873","3","0.47405192","-0.05746084","9.449914","lay down","1"
"14715734136887","3","0.50038815","-0.059855044","9.495404","lay down","1"
"14715754064865","3","0.49559975","-0.074220255","9.433155","lay down","1"
"14715774053879","3","0.47884035","-0.050278235","9.421184","lay down","1"
"14715794042892","3","0.50278234","-0.06943185","9.528923","lay down","1"
"14715813970871","3","0.49799395","-0.055066638","9.41879","lay down","1"
"14715833929367","3","0.48602295","-0.04309563","9.41879","lay down","1"
"14715853887863","3","0.49799395","-0.07182605","9.483433","lay down","1"
"14715873808640","3","0.49559975","-0.059855044","9.44752","lay down","1"
"14715893804855","3","0.48123455","-0.059855044","9.404425","lay down","1"
"14715913752332","3","0.4429273","-0.038307227","9.507375","lay down","1"
"14715933721848","3","0.48362875","-0.05746084","9.504981","lay down","1"
"14715953659447","3","0.48841715","-0.023942016","9.380483","lay down","1"
"14715973638840","3","0.46686932","-0.06464344","9.519346","lay down","1"
"14715993597336","3","0.48841715","-0.02633622","9.471462","lay down","1"
"14716013560563","3","0.50278234","-0.090979666","9.464279","lay down","1"
"14716033511986","3","0.48602295","-0.059855044","9.49301","lay down","1"
"14716053503342","3","0.5243302","-0.055066638","9.406818","lay down","1"
"14716073411447","3","0.50278234","-0.05267244","9.449914","lay down","1"
"14716093389816","3","0.51954174","-0.08379706","9.514558","lay down","1"
"14716113348601","3","0.49320555","-0.05746084","9.423578","lay down","1"
"14716133304255","3","0.59376204","-0.062249243","9.624691","lay down","1"
"14716153265305","3","0.50996494","-0.08379706","9.414001","lay down","1"
"14716173250524","3","0.45250413","-0.045489833","9.3421755","lay down","1"
"14716193203293","3","0.4429273","-0.047884032","9.382876","lay down","1"
"14716213166255","3","0.49081135","-0.05267244","9.435549","lay down","1"
"14716233076524","3","0.46447513","-0.055066638","9.533711","lay down","1"
"14716253076793","3","0.51235914","-0.074220255","9.437943","lay down","1"
"14716273077316","3","0.521936","-0.06703765","9.497798","lay down","1"
"14716293035812","3","0.50996494","-0.06703765","9.454702","lay down","1"
"14716312982101","3","0.50278234","-0.05746084","9.44752","lay down","1"
"14716332892832","3","0.50757074","-0.06943185","9.481039","lay down","1"
"14716352903986","3","0.50038815","-0.050278235","9.363723","lay down","1"
"14716372869797","3","0.50757074","-0.06464344","9.478644","lay down","1"
"14716392805486","3","0.533907","-0.07182605","9.469068","lay down","1"
"14716412781947","3","0.49559975","-0.059855044","9.435549","lay down","1"
"14716432743870","3","0.49799395","-0.06943185","9.481039","lay down","1"
"14716452734299","3","0.51475334","-0.05267244","9.437943","lay down","1"
"14716472706216","3","0.48841715","-0.074220255","9.40203","lay down","1"
"14716492662832","3","0.51475334","-0.06943185","9.483433","lay down","1"
"14716512623755","3","0.50996494","-0.08379706","9.440337","lay down","1"
"14716532598801","3","0.6631939","-0.05267244","9.425972","lay down","1"
"14716552587814","3","0.37349546","-0.18674773","9.368511","lay down","1"
"14716572571986","3","0.4333505","-0.023942016","9.526528","lay down","1"
"14716592535324","3","0.63206923","-0.10055647","9.533711","lay down","1"
"14716612493820","3","0.46686932","-0.050278235","9.349358","lay down","1"
"14716632407793","3","0.521936","-0.02633622","9.368511","lay down","1"
"14716652364716","3","0.5554548","-0.093373865","9.555259","lay down","1"
"14716672369308","3","0.49799395","-0.06943185","9.471462","lay down","1"
"14716692358322","3","0.5410896","-0.107739076","9.543288","lay down","1"
"14716712316818","3","0.5267244","-0.10295067","9.469068","lay down","1"
"14716732258601","3","0.5482722","-0.088585466","9.507375","lay down","1"
"14716752233810","3","0.5530606","-0.10534488","9.361329","lay down","1"
"14716772174793","3","0.51475334","-0.076614454","9.334992","lay down","1"
"14716792150803","3","0.5506664","-0.076614454","9.646238","lay down","1"
"14716812109299","3","0.5291186","-0.06943185","9.507375","lay down","1"
"14716832067795","3","0.557849","-0.06703765","9.476251","lay down","1"
"14716852026291","3","0.5434838","-0.10534488","9.464279","lay down","1"
"14716871984787","3","0.5291186","-0.09816227","9.351752","lay down","1"
"14716891943283","3","0.50996494","-0.033518825","9.356541","lay down","1"
"14716911914370","3","0.51714754","-0.08379706","9.476251","lay down","1"
"14716931890793","3","0.51954174","-0.062249243","9.457097","lay down","1"
"14716951818771","3","0.49799395","-0.06703765","9.586384","lay down","1"
"14716971807785","3","0.5267244","-0.1388637","9.481039","lay down","1"
"14716991796799","3","0.4237737","-0.11252748","9.483433","lay down","1"
"14717011785812","3","0.557849","-0.12928689","9.461885","lay down","1"
"14717031729447","3","0.50038815","-0.10295067","9.469068","lay down","1"
"14717051662177","3","0.56982","-0.050278235","9.397242","lay down","1"
"14717071691818","3","0.56982","-0.110133275","9.375694","lay down","1"
"14717091619797","3","0.2633622","-0.46926352","9.555259","lay down","1"
"14717111608810","3","0.6823475","0.11971009","9.55047","lay down","1"
"14717131552793","3","0.50996494","0.076614454","9.543288","lay down","1"
"14717151525803","3","0.50517654","-0.17956513","9.358934","lay down","1"
"14717171484299","3","0.5770026","-0.09816227","9.888053","lay down","1"
"14717191442795","3","0.59615624","-0.1316811","9.380483","lay down","1"
"14717211401291","3","0.45489833","0.10295067","9.220071","lay down","1"
"14717231326024","3","0.51235914","-0.14604631","9.615114","lay down","1"
"14717251285216","3","0.5243302","-0.047884032","9.454702","lay down","1"
"14717271276779","3","0.47884035","-0.01436521","9.323022","lay down","1"
"14717291265793","3","0.4333505","-0.12210429","9.337387","lay down","1"
"14717311224289","3","0.2657564","-0.074220255","9.421184","lay down","1"
"14717331182785","3","1.0845734","0.02873042","9.272743","lay down","1"
"14717351100639","3","-0.6727707","-0.34237084","9.43076","lay down","1"
"14717371099777","3","-3.3279405","-0.7278373","9.519346","lay down","1"
"14717391088791","3","-1.0893618","-0.5506664","9.495404","lay down","1"
"14717411047287","3","1.910573","-0.009576807","9.368511","lay down","1"
"14717431005783","3","3.3087866","0.39504328","9.469068","lay down","1"
"14717450935793","3","3.1028855","0.58657944","9.44752","lay down","1"
"14717470922775","3","0.088585466","-0.35673606","9.509769","lay down","1"
"14717490911789","3","0.78050977","-0.11492168","9.61272","lay down","1"
"14717510870285","3","0.5530606","-0.035913024","9.404425","lay down","1"
"14717530828781","3","0.50038815","-0.110133275","9.40203","lay down","1"
"14717550787277","3","0.51475334","-0.08379706","9.495404","lay down","1"
"14717570745773","3","0.46926352","-0.110133275","9.485827","lay down","1"
"14717590704269","3","0.44532153","-0.076614454","9.461885","lay down","1"
"14717610626831","3","0.4189853","-0.08140286","9.440337","lay down","1"
"14717630565216","3","0.45489833","-0.093373865","9.461885","lay down","1"
"14717650579758","3","0.50038815","-0.06943185","9.435549","lay down","1"
"14717670538254","3","0.59615624","-0.11252748","9.40203","lay down","1"
"14717690437600","3","0.49081135","-0.08140286","9.270349","lay down","1"
"14717710455246","3","0.49559975","-0.079008654","9.299079","lay down","1"
"14717730413742","3","0.47165772","-0.06703765","9.421184","lay down","1"
"14717750372238","3","0.5386954","-0.1364695","9.636662","lay down","1"
"14717770330734","3","0.641646","-0.19632454","9.507375","lay down","1"
"14717790311754","3","0.581791","0.031124622","9.507375","lay down","1"
"14717810270331","3","0.60333884","-0.25139117","9.557653","lay down","1"
"14717830236740","3","0.51714754","-0.093373865","9.40203","lay down","1"
"14717850175023","3","0.51475334","-0.16759412","9.459491","lay down","1"
"14717870078677","3","0.5291186","-0.16519992","9.411607","lay down","1"
"14717890026869","3","0.49559975","-0.09816227","9.41879","lay down","1"
"14717910101242","3","0.5793968","-0.1436521","9.524135","lay down","1"
"14717930059738","3","0.533907","-0.12928689","9.502586","lay down","1"
"14717950048752","3","0.56982","-0.11731588","9.497798","lay down","1"
"14717970007248","3","0.5482722","-0.17956513","9.49301","lay down","1"
"14717989956138","3","0.50757074","-0.15322891","9.457097","lay down","1"
"14718009924240","3","0.5363012","-0.1604115","9.442732","lay down","1"
"14718029845792","3","0.51235914","-0.11731588","9.411607","lay down","1"
"14718049819061","3","0.5291186","-0.1436521","9.433155","lay down","1"
"14718069830246","3","0.51475334","-0.1316811","9.481039","lay down","1"
"14718089732946","3","0.557849","-0.15083471","9.490616","lay down","1"
"14718109680638","3","0.5410896","-0.1436521","9.49301","lay down","1"
"14718129705734","3","0.5506664","-0.1412579","9.500193","lay down","1"
"14718149666754","3","0.5482722","-0.14604631","9.442732","lay down","1"
"14718169603407","3","0.5434838","-0.1388637","9.464279","lay down","1"
"14718189611740","3","0.5554548","-0.1436521","9.452309","lay down","1"
"14718209570236","3","0.557849","-0.14844051","9.440337","lay down","1"
"14718229483792","3","0.5626374","-0.1364695","9.471462","lay down","1"
"14718249415638","3","0.5482722","-0.1364695","9.435549","lay down","1"
"14718269445724","3","0.5626374","-0.1436521","9.459491","lay down","1"
"14718289398600","3","0.545878","-0.1364695","9.481039","lay down","1"
"14718309345215","3","0.533907","-0.14844051","9.469068","lay down","1"
"14718329289600","3","0.49799395","-0.12210429","9.437943","lay down","1"
"14718349238138","3","0.50038815","-0.12210429","9.433155","lay down","1"
"14718369174177","3","0.5650316","-0.10295067","9.44752","lay down","1"
"14718389171677","3","0.56982","-0.107739076","9.6845455","lay down","1"
"14718409125523","3","0.5506664","-0.31603462","9.416395","lay down","1"
"14718429144211","3","0.61770403","-0.15562311","9.583989","lay down","1"
"14718449133224","3","0.533907","-0.095768064","9.294291","lay down","1"
"14718469091721","3","0.6799533","-0.16519992","9.524135","lay down","1"
"14718489050217","3","0.46208093","-0.10295067","9.469068","lay down","1"
"14718509039230","3","0.5482722","-0.15562311","9.31105","lay down","1"
"14718528997726","3","0.5530606","-0.110133275","9.385271","lay down","1"
"14718548956223","3","0.50757074","-0.15562311","9.442732","lay down","1"
"14718568896946","3","0.5506664","-0.11731588","9.435549","lay down","1"
"14718588873215","3","0.533907","-0.14604631","9.442732","lay down","1"
"14718608854138","3","0.533907","-0.1364695","9.440337","lay down","1"
"14718628820724","3","0.5434838","-0.1436521","9.428367","lay down","1"
"14718648779221","3","0.5386954","-0.1412579","9.457097","lay down","1"
"14718668768234","3","0.5410896","-0.14604631","9.500193","lay down","1"
"14718688696213","3","0.5434838","-0.15322891","9.543288","lay down","1"
"14718708685226","3","0.5506664","-0.14844051","9.524135","lay down","1"
"14718728643723","3","0.5291186","-0.1436521","9.449914","lay down","1"
"14718748585753","3","0.50757074","-0.1316811","9.411607","lay down","1"
"14718768591232","3","0.51954174","-0.12928689","9.428367","lay down","1"
"14718788549728","3","0.5291186","-0.11492168","9.445126","lay down","1"
"14718808475330","3","0.5291186","-0.1340753","9.44752","lay down","1"
"14718828436203","3","0.5291186","-0.1412579","9.457097","lay down","1"
"14718848424061","3","0.5315128","-0.1436521","9.466674","lay down","1"
"14718868383713","3","0.5554548","-0.14844051","9.478644","lay down","1"
"14718888342209","3","0.5530606","-0.12928689","9.483433","lay down","1"
"14718908300705","3","0.5434838","-0.14844051","9.481039","lay down","1"
"14718928289719","3","0.545878","-0.14604631","9.469068","lay down","1"
"14718948278732","3","0.5291186","-0.12928689","9.44752","lay down","1"
"14718968237228","3","0.5291186","-0.12210429","9.437943","lay down","1"
"14718988159753","3","0.533907","-0.1364695","9.445126","lay down","1"
"14719008154221","3","0.5410896","-0.12928689","9.435549","lay down","1"
"14719028112717","3","0.5363012","-0.1340753","9.445126","lay down","1"
"14719048071213","3","0.5410896","-0.1436521","9.457097","lay down","1"
"14719068029709","3","0.5386954","-0.1388637","9.461885","lay down","1"
"14719087988205","3","0.5363012","-0.1316811","9.476251","lay down","1"
"14719107938407","3","0.5315128","-0.14604631","9.473856","roll side","1"
"14719127855984","3","0.5434838","-0.1364695","9.454702","roll side","1"
"14719147894211","3","0.5386954","-0.12689269","9.459491","roll side","1"
"14719167852707","3","0.5386954","-0.1364695","9.445126","roll side","1"
"14719187734522","3","0.5267244","-0.14604631","9.44752","roll side","1"
"14719207800217","3","0.521936","-0.1364695","9.459491","roll side","1"
"14719227758713","3","0.5291186","-0.14604631","9.464279","roll side","1"
"14719247675099","3","0.5363012","-0.1340753","9.469068","roll side","1"
"14719267675705","3","0.5434838","-0.1388637","9.457097","roll side","1"
"14719287634201","3","0.5363012","-0.1364695","9.471462","roll side","1"
"14719307592697","3","0.5363012","-0.1340753","9.478644","roll side","1"
"14719327551193","3","0.5315128","-0.1388637","9.452309","roll side","1"
"14719347509689","3","0.533907","-0.1316811","9.457097","roll side","1"
"14719367468185","3","0.5386954","-0.12449849","9.459491","roll side","1"
"14719387379983","3","0.5434838","-0.1364695","9.452309","roll side","1"
"14719407364791","3","0.5410896","-0.1388637","9.449914","roll side","1"
"14719427343674","3","0.5315128","-0.1412579","9.461885","roll side","1"
"14719447216983","3","0.5410896","-0.1316811","9.469068","roll side","1"
"14719467260666","3","0.5410896","-0.1388637","9.44752","roll side","1"
"14719487135060","3","0.5386954","-0.1316811","9.459491","roll side","1"
"14719507113291","3","0.5386954","-0.1364695","9.452309","roll side","1"
"14719527136154","3","0.5291186","-0.1388637","9.452309","roll side","1"
"14719547041637","3","0.5410896","-0.1436521","9.457097","roll side","1"
"14719567053146","3","0.533907","-0.1340753","9.459491","roll side","1"
"14719587011642","3","0.5291186","-0.1316811","9.445126","roll side","1"
"14719606970139","3","0.533907","-0.1364695","9.449914","roll side","1"
"14719626928635","3","0.5506664","-0.14844051","9.476251","roll side","1"
"14719646806945","3","0.5482722","-0.1412579","9.469068","roll side","1"
"14719666766176","3","0.5315128","-0.1412579","9.464279","roll side","1"
"14719686804123","3","0.5243302","-0.12449849","9.442732","roll side","1"
"14719706762619","3","0.5363012","-0.1412579","9.425972","roll side","1"
"14719726751633","3","0.545878","-0.1388637","9.454702","roll side","1"
"14719746740646","3","0.5363012","-0.1340753","9.43076","roll side","1"
"14719766612252","3","0.5434838","-0.1436521","9.387665","roll side","1"
"14719786565714","3","0.5674258","-0.12928689","9.531317","roll side","1"
"14719806616135","3","0.5410896","-0.15322891","9.52174","roll side","1"
"14719826463329","3","0.51954174","-0.11971009","9.425972","roll side","1"
"14719846457714","3","0.5363012","-0.12689269","9.473856","roll side","1"
"14719866491623","3","0.51235914","-0.12928689","9.423578","roll side","1"
"14719886450119","3","0.51954174","-0.11252748","9.3661175","roll side","1"
"14719906316368","3","0.49320555","-0.107739076","9.284714","roll side","1"
"14719926290829","3","0.5410896","-0.12928689","9.469068","roll side","1"
"14719946356125","3","0.533907","-0.18914193","9.533711","roll side","1"
"14719966314621","3","0.62728083","-0.1364695","9.651027","roll side","1"
"14719986273117","3","0.5291186","-0.14604631","9.358934","roll side","1"
"14720006156291","3","0.61530983","-0.16998832","9.605537","roll side","1"
"14720026081791","3","0.6560113","-0.16759412","9.507375","roll side","1"
"14720046070175","3","0.59855044","-0.2681506","9.619903","roll side","1"
"14720066014445","3","0.56982","-0.15801731","9.411607","roll side","1"
"14720086028752","3","0.5291186","-0.15083471","9.481039","roll side","1"
"14720105993576","3","0.5650316","-0.15562311","9.404425","roll side","1"
"14720125847752","3","0.51235914","-0.16759412","9.40203","roll side","1"
"14720145846714","3","0.5530606","-0.12689269","9.428367","roll side","1"
"14720165899582","3","0.49320555","-0.14604631","9.41879","roll side","1"
"14720185803829","3","0.51475334","-0.11492168","9.414001","roll side","1"
"14720205787329","3","0.51714754","-0.16280572","9.411607","roll side","1"
"14720225701368","3","0.51714754","-0.1364695","9.399636","roll side","1"
"14720245687329","3","0.521936","-0.11492168","9.423578","roll side","1"
"14720265722580","3","0.5243302","-0.107739076","9.471462","roll side","1"
"14720285646791","3","0.5506664","-0.08379706","9.617508","roll side","1"
"14720305612483","3","0.5746084","-0.19871874","9.636662","roll side","1"
"14720325575137","3","0.58418524","-0.16519992","9.605537","roll side","1"
"14720345519137","3","0.5410896","-0.15322891","9.502586","roll side","1"
"14720365606613","3","0.5363012","-0.11492168","9.315839","roll side","1"
"14720385565109","3","0.5267244","-0.11252748","9.3733","roll side","1"
"14720405432752","3","0.5386954","-0.062249243","9.346964","roll side","1"
"14720425373867","3","0.51235914","-0.19871874","9.452309","roll side","1"
"14720445316983","3","0.4405331","-0.4141969","9.52174","roll side","1"
"14720465399094","3","0.545878","0.033518825","9.598354","roll side","1"
"14720485357590","3","0.5386954","-0.320823","9.636662","roll side","1"
"14720505219790","3","0.50757074","0.021547815","9.411607","roll side","1"
"14720525243060","3","0.51235914","-0.21308395","9.509769","roll side","1"
"14720545233078","3","0.49081135","-0.02633622","9.370906","roll side","1"
"14720565162175","3","0.5554548","-0.21308395","9.445126","roll side","1"
"14720585180588","3","0.4285621","-0.11971009","9.320627","roll side","1"
"14720605016136","3","0.5554548","-0.11971009","9.423578","roll side","1"
"14720624988098","3","0.51475334","-0.18195933","9.607931","roll side","1"
"14720645056076","3","0.545878","-0.15083471","9.540894","roll side","1"
"14720665014572","3","0.5434838","-0.1340753","9.471462","roll side","1"
"14720684895598","3","0.5267244","-0.12449849","9.425972","roll side","1"
"14720704931564","3","0.50278234","-0.1364695","9.504981","roll side","1"
"14720724790752","3","0.4381389","-0.11731588","9.488221","roll side","1"
"14720744839598","3","0.533907","-0.12689269","9.370906","roll side","1"
"14720764807053","3","0.49559975","-0.09816227","9.3182335","roll side","1"
"14720784665483","3","0.51475334","-0.090979666","9.315839","roll side","1"
"14720804724045","3","0.48841715","-0.09816227","9.428367","roll side","1"
"14720824682541","3","0.51954174","-0.076614454","9.358934","roll side","1"
"14720844641037","3","0.36152446","-0.095768064","9.301474","roll side","1"
"14720864599533","3","0.29688102","-0.06464344","9.124303","roll side","1"
"14720884558029","3","0.3854665","-0.12689269","8.949526","roll side","1"
"14720904516525","3","0.5267244","-0.18914193","9.3182335","roll side","1"
"14720924475021","3","0.6607997","-0.18674773","9.210494","roll side","1"
"14720944433517","3","0.60333884","-0.2896984","10.721235","roll side","1"
"14720964300905","3","1.2114661","-0.18674773","10.110714","roll side","1"
"14720984264559","3","0.5434838","-0.23223756","9.691729","roll side","1"
"14721004339523","3","0.63206923","-0.1364695","9.165004","roll side","1"
"14721024211636","3","0.41180268","-0.11252748","9.239224","roll side","1"
"14721044159367","3","0.4261679","-0.10534488","9.157822","roll side","1"
"14721064135713","3","0.33518824","-0.1412579","9.28232","roll side","1"
"14721084120905","3","0.44532153","-0.10534488","9.200917","roll side","1"
"14721104130098","3","0.51954174","-0.17956513","9.358934","roll side","1"
"14721124046982","3","0.6871359","-0.20829555","9.825804","roll side","1"
"14721144094482","3","0.6751649","-0.21787235","9.744401","roll side","1"
"14721164029828","3","0.6751649","-0.17238252","9.64145","roll side","1"
"14721183945290","3","0.62967503","-0.17956513","9.622296","roll side","1"
"14721203941790","3","0.5722142","-0.18674773","9.502586","roll side","1"
"14721223917328","3","0.51235914","-0.14844051","9.380483","roll side","1"
"14721243915521","3","0.49320555","-0.10534488","9.385271","roll side","1"
"14721263873367","3","0.45489833","-0.1412579","9.313444","roll side","1"
"14721283911056","3","0.5506664","-0.107739076","9.454702","roll side","1"
"14721303779328","3","0.50757074","-0.1316811","9.428367","roll side","1"
"14721323805944","3","0.48362875","-0.1364695","9.473856","roll side","1"
"14721343691521","3","0.5267244","-0.1316811","9.485827","roll side","1"
"14721363745041","3","0.521936","-0.1364695","9.500193","roll side","1"
"14721383703537","3","0.557849","-0.12449849","9.495404","roll side","1"
"14721403662033","3","0.545878","-0.12928689","9.459491","roll side","1"
"14721423538290","3","0.5650316","-0.12689269","9.476251","roll side","1"
"14721443579025","3","0.5267244","-0.11252748","9.421184","roll side","1"
"14721463537521","3","0.5291186","-0.11492168","9.466674","roll side","1"
"14721483482405","3","0.5363012","-0.107739076","9.375694","roll side","1"
"14721503454514","3","0.521936","-0.11492168","9.41879","roll side","1"
"14721523336097","3","0.50757074","-0.11731588","9.466674","roll side","1"
"14721543402023","3","0.5482722","-0.15083471","9.481039","roll side","1"
"14721563336020","3","0.50996494","-0.11971009","9.44752","roll side","1"
"14721583319015","3","0.51954174","-0.1412579","9.5385","roll side","1"
"14721603277512","3","0.47405192","-0.11971009","9.49301","roll side","1"
"14721623132520","3","0.47644615","-0.12210429","9.564836","roll side","1"
"14721643190674","3","0.4405331","-0.12210429","9.409213","roll side","1"
"14721663153000","3","0.46926352","-0.110133275","9.409213","roll side","1"
"14721683142014","3","0.49320555","-0.11492168","9.469068","roll side","1"
"14721703130405","3","0.5363012","-0.10534488","9.406818","roll side","1"
"14721723016251","3","0.51714754","-0.110133275","9.488221","roll side","1"
"14721743048019","3","0.6679823","-0.033518825","9.392453","roll side","1"
"14721762889328","3","0.49559975","-0.12210429","9.445126","roll side","1"
"14721782868059","3","0.533907","-0.12210429","9.483433","roll side","1"
"14721802954025","3","0.51714754","-0.11492168","9.437943","roll side","1"
"14721822854789","3","0.49320555","-0.11492168","9.423578","roll side","1"
"14721842871017","3","0.51475334","-0.107739076","9.476251","roll side","1"
"14721862724059","3","0.49320555","-0.1364695","9.44752","roll side","1"
"14721882788010","3","0.49799395","-0.08619126","9.526528","roll side","1"
"14721902676482","3","0.51475334","-0.11492168","9.43076","roll side","1"
"14721922705002","3","0.50278234","-0.107739076","9.437943","roll side","1"
"14721942663498","3","0.50757074","-0.11731588","9.478644","roll side","1"
"14721962621994","3","0.51475334","-0.12928689","9.473856","roll side","1"
"14721982580490","3","0.47165772","-0.11731588","9.457097","roll side","1"
"14722002433405","3","0.5434838","-0.07182605","9.564836","roll side","1"
"14722022380982","3","0.45010993","-0.14844051","9.490616","roll side","1"
"14722042455978","3","0.49799395","-0.1388637","9.543288","roll side","1"
"14722062365020","3","0.51954174","-0.10055647","9.464279","roll side","1"
"14722082342453","3","0.50038815","-0.090979666","9.416395","roll side","1"
"14722102331467","3","0.5291186","-0.10295067","9.452309","roll side","1"
"14722122289963","3","0.49559975","-0.12449849","9.481039","roll side","1"
"14722142135520","3","0.5267244","-0.11731588","9.461885","roll side","1"
"14722162205289","3","0.521936","-0.12210429","9.476251","roll side","1"
"14722182139251","3","0.49799395","-0.11731588","9.495404","roll side","1"
"14722202058558","3","0.50038815","-0.10534488","9.466674","roll side","1"
"14722222082443","3","0.50757074","-0.107739076","9.478644","roll side","1"
"14722242065635","3","0.50996494","-0.11731588","9.461885","roll side","1"
"14722261972828","3","0.50278234","-0.107739076","9.44752","roll side","1"
"14722281986635","3","0.521936","-0.11492168","9.457097","roll side","1"
"14722301943597","3","0.51475334","-0.110133275","9.457097","roll side","1"
"14722321935959","3","0.51475334","-0.107739076","9.457097","roll side","1"
"14722341758328","3","0.5243302","-0.107739076","9.466674","roll side","1"
"14722361713635","3","0.50996494","-0.11492168","9.476251","roll side","1"
"14722381773635","3","0.51475334","-0.11492168","9.454702","roll side","1"
"14722401712020","3","0.50757074","-0.12928689","9.457097","roll side","1"
"14722421758957","3","0.51954174","-0.12449849","9.459491","roll side","1"
"14722441631058","3","0.49799395","-0.11492168","9.469068","roll side","1"
"14722461667558","3","0.50757074","-0.11731588","9.44752","roll side","1"
"14722481538251","3","0.50517654","-0.11492168","9.459491","roll side","1"
"14722501485289","3","0.51714754","-0.12210429","9.464279","roll side","1"
"14722521581955","3","0.50757074","-0.12449849","9.442732","roll side","1"
"14722541452327","3","0.51954174","-0.11252748","9.44752","roll side","1"
"14722561369481","3","0.51235914","-0.11971009","9.459491","roll side","1"
"14722581479981","3","0.51714754","-0.107739076","9.464279","roll side","1"
"14722601386020","3","0.51714754","-0.11492168","9.457097","roll side","1"
"14722621303404","3","0.50996494","-0.11731588","9.44752","roll side","1"
"14722641261173","3","0.50996494","-0.11252748","9.440337","roll side","1"
"14722661352463","3","0.50278234","-0.11971009","9.457097","roll side","1"
"14722681244020","3","0.51235914","-0.10295067","9.454702","roll side","1"
"14722701243250","3","0.50757074","-0.12210429","9.466674","roll side","1"
"14722721167481","3","0.50757074","-0.11731588","9.469068","roll side","1"
"14722741216965","3","0.51475334","-0.11731588","9.466674","roll side","1"
"14722761096058","3","0.51235914","-0.110133275","9.452309","roll side","1"
"14722781086173","3","0.51954174","-0.10295067","9.449914","roll side","1"
"14722800944750","3","0.51954174","-0.110133275","9.471462","roll side","1"
"14722820955135","3","0.51235914","-0.12210429","9.452309","roll side","1"
"14722841037596","3","0.51714754","-0.110133275","9.473856","roll side","1"
"14722860998459","3","0.51235914","-0.11731588","9.459491","roll side","1"
"14722880956955","3","0.51475334","-0.10295067","9.449914","roll side","1"
"14722900780750","3","0.51475334","-0.12210429","9.449914","roll side","1"
"14722920904465","3","0.51954174","-0.11971009","9.461885","roll side","1"
"14722940832443","3","0.51235914","-0.107739076","9.461885","roll side","1"
"14722960748250","3","0.49559975","-0.110133275","9.464279","roll side","1"
"14722980779953","3","0.51714754","-0.12210429","9.454702","roll side","1"
"14723000768967","3","0.521936","-0.107739076","9.461885","roll side","1"
"14723020604058","3","0.50757074","-0.11731588","9.457097","roll side","1"
"14723040583442","3","0.50996494","-0.11492168","9.461885","roll side","1"
"14723060599096","3","0.51235914","-0.12210429","9.466674","roll side","1"
"14723080663986","3","0.51714754","-0.110133275","9.473856","roll side","1"
"14723100622482","3","0.50996494","-0.11731588","9.459491","roll side","1"
"14723120580978","3","0.50757074","-0.11731588","9.44752","roll back","1"
"14723140569992","3","0.51235914","-0.11252748","9.461885","roll back","1"
"14723160390058","3","0.50038815","-0.110133275","9.471462","roll back","1"
"14723180341942","3","0.50757074","-0.110133275","9.464279","roll back","1"
"14723200441481","3","0.50517654","-0.11492168","9.466674","roll back","1"
"14723220403976","3","0.51954174","-0.11252748","9.471462","roll back","1"
"14723240272596","3","0.51954174","-0.12210429","9.445126","roll back","1"
"14723260185288","3","0.51714754","-0.12449849","9.457097","roll back","1"
"14723280136481","3","0.50757074","-0.107739076","9.452309","roll back","1"
"14723300110058","3","0.51714754","-0.12689269","9.461885","roll back","1"
"14723320182288","3","0.50996494","-0.11731588","9.473856","roll back","1"
"14723340102442","3","0.51235914","-0.11731588","9.457097","roll back","1"
"14723359951096","3","0.51235914","-0.110133275","9.454702","roll back","1"
"14723379927558","3","0.51714754","-0.11492168","9.454702","roll back","1"
"14723400030441","3","0.51475334","-0.12449849","9.41879","roll back","1"
"14723419952981","3","0.50757074","-0.12928689","9.481039","roll back","1"
"14723439852442","3","0.51235914","-0.11731588","9.512163","roll back","1"
"14723459775096","3","0.51475334","-0.10534488","9.440337","roll back","1"
"14723479741096","3","0.51954174","-0.10295067","9.428367","roll back","1"
"14723499743981","3","0.51714754","-0.1340753","9.481039","roll back","1"
"14723519811935","3","0.50278234","-0.11252748","9.478644","roll back","1"
"14723539621711","3","0.51235914","-0.12449849","9.459491","roll back","1"
"14723559647250","3","0.5291186","-0.10295067","9.428367","roll back","1"
"14723579651134","3","0.5243302","-0.11492168","9.466674","roll back","1"
"14723599492827","3","0.51475334","-0.11252748","9.469068","roll back","1"
"14723619546327","3","0.51954174","-0.110133275","9.473856","roll back","1"
"14723639415557","3","0.51475334","-0.12689269","9.478644","roll back","1"
"14723659490890","3","0.51235914","-0.10295067","9.452309","roll back","1"
"14723679431711","3","0.50757074","-0.12928689","9.435549","roll back","1"
"14723699323019","3","0.51954174","-0.10295067","9.483433","roll back","1"
"14723719411980","3","0.50517654","-0.107739076","9.454702","roll back","1"
"14723739225519","3","0.521936","-0.11731588","9.466674","roll back","1"
"14723759214865","3","0.51475334","-0.12689269","9.507375","roll back","1"
"14723779302902","3","0.51954174","-0.11731588","9.437943","roll back","1"
"14723799113288","3","0.50757074","-0.110133275","9.44752","roll back","1"
"14723819198634","3","0.50996494","-0.11252748","9.445126","roll back","1"
"14723839095826","3","0.50757074","-0.11252748","9.435549","roll back","1"
"14723859083403","3","0.50278234","-0.10055647","9.478644","roll back","1"
"14723879133519","3","0.5243302","-0.12928689","9.411607","roll back","1"
"14723899121134","3","0.521936","-0.14604631","9.507375","roll back","1"
"14723919103928","3","0.5315128","-0.1316811","9.461885","roll back","1"
"14723938927480","3","0.50757074","-0.11971009","9.435549","roll back","1"
"14723959001596","3","0.5291186","-0.110133275","9.478644","roll back","1"
"14723979007634","3","0.5267244","-0.12210429","9.483433","roll back","1"
"14723998839519","3","0.51954174","-0.1364695","9.516952","roll back","1"
"14724018957443","3","0.5410896","-0.076614454","9.332599","roll back","1"
"14724038946457","3","0.5410896","-0.08140286","9.349358","roll back","1"
"14724058772634","3","0.533907","-0.107739076","9.485827","roll back","1"
"14724078753557","3","0.58418524","-0.18435353","9.837775","roll back","1"
"14724098745134","3","0.533907","-0.10055647","9.449914","roll back","1"
"14724118635403","3","0.35194764","-0.17477672","9.397242","roll back","1"
"14724138714826","3","0.581791","-0.10295067","9.560047","roll back","1"
"14724158697433","3","0.39504328","-0.11971009","9.409213","roll back","1"
"14724178655930","3","0.5291186","-0.10055647","9.196129","roll back","1"
"14724198614426","3","0.39743748","-0.055066638","9.588778","roll back","1"
"14724218412480","3","0.5554548","-0.15562311","9.524135","roll back","1"
"14724238531418","3","0.41180268","-0.107739076","9.435549","roll back","1"
"14724258489914","3","0.533907","-0.088585466","9.399636","roll back","1"
"14724278302057","3","0.47644615","-0.08140286","9.452309","roll back","1"
"14724298406906","3","0.45729253","-0.16759412","9.440337","roll back","1"
"14724318365402","3","0.02633622","-0.14604631","9.421184","roll back","1"
"14724338198518","3","1.4939818","-0.021547815","9.275137","roll back","1"
"14724358251672","3","0.5674258","-0.12689269","9.368511","roll back","1"
"14724378063865","3","0.19393034","-0.16759412","9.485827","roll back","1"
"14724398037172","3","-0.21308395","-0.15322891","9.516952","roll back","1"
"14724418068903","3","-2.4612393","-0.62967503","9.28232","roll back","1"
"14724438116379","3","-3.3327289","-0.40940848","9.404425","roll back","1"
"14724458056672","3","3.2225955","-0.23702596","8.959103","roll back","1"
"14724477985518","3","4.2042184","0.033518825","10.115502","roll back","1"
"14724497842018","3","3.5889084","1.7405846","9.380483","roll back","1"
"14724518009634","3","0.8619126","0.320823","9.358934","roll back","1"
"14724537939377","3","0.5363012","-0.12210429","10.0269165","roll back","1"
"14724557871134","3","0.6847417","-0.04070143","9.574412","roll back","1"
"14724577805018","3","0.45968673","-0.095768064","9.648633","roll back","1"
"14724597728787","3","0.21547815","-0.10295067","9.660604","roll back","1"
"14724617802249","3","0.48123455","-0.16759412","9.476251","roll back","1"
"14724637724018","3","0.39025488","-0.16759412","9.361329","roll back","1"
"14724657613172","3","0.47884035","-0.11731588","9.55047","roll back","1"
"14724677633595","3","0.47165772","-0.12449849","9.368511","roll back","1"
"14724697663595","3","0.4309563","-0.093373865","9.370906","roll back","1"
"14724717572710","3","0.48123455","-0.11492168","9.382876","roll back","1"
"14724737481326","3","0.45250413","-0.110133275","9.43076","roll back","1"
"14724757574387","3","0.45968673","-0.14844051","9.423578","roll back","1"
"14724777532883","3","0.49799395","-0.15562311","9.488221","roll back","1"
"14724797359864","3","0.4237737","-0.12210429","9.500193","roll back","1"
"14724817304557","3","0.50757074","-0.1388637","9.445126","roll back","1"
"14724837408371","3","0.4309563","-0.15083471","9.495404","roll back","1"
"14724857307095","3","0.60333884","-0.055066638","9.406818","roll back","1"
"14724877325363","3","0.557849","-0.15801731","9.337387","roll back","1"
"14724897254903","3","0.45968673","-0.23223756","9.524135","roll back","1"
"14724917090903","3","0.51475334","-0.10534488","9.753978","roll back","1"
"14724937037095","3","0.4429273","-0.08140286","9.507375","roll back","1"
"14724957096172","3","0.50038815","-0.10534488","9.43076","roll back","1"
"14724977148361","3","0.48841715","-0.15322891","9.516952","roll back","1"
"14724997106857","3","0.557849","-0.10295067","9.406818","roll back","1"
"14725017065353","3","0.48123455","-0.16998832","9.437943","roll back","1"
"14725036898518","3","0.4405331","-0.1388637","9.41879","roll back","1"
"14725056889903","3","0.50757074","-0.12449849","9.435549","roll back","1"
"14725076967018","3","0.48841715","-0.17477672","9.437943","roll back","1"
"14725096774633","3","0.5434838","-0.18435353","9.490616","roll back","1"
"14725116712556","3","0.533907","-0.17477672","9.500193","roll back","1"
"14725136846848","3","0.50757074","-0.17717093","9.469068","roll back","1"
"14725156805344","3","0.51235914","-0.15322891","9.502586","roll back","1"
"14725176594326","3","0.49081135","-0.16519992","9.437943","roll back","1"
"14725196722336","3","0.49320555","-0.15801731","9.423578","roll back","1"
"14725216523595","3","0.46686932","-0.18435353","9.414001","roll back","1"
"14725236599095","3","0.46686932","-0.18435353","9.445126","roll back","1"
"14725256597824","3","0.48123455","-0.18195933","9.476251","roll back","1"
"14725276420249","3","0.48841715","-0.15562311","9.495404","roll back","1"
"14725296353556","3","0.50038815","-0.16759412","9.481039","roll back","1"
"14725316357248","3","0.49320555","-0.16280572","9.507375","roll back","1"
"14725336416941","3","0.49081135","-0.16998832","9.502586","roll back","1"
"14725356297633","3","0.50278234","-0.17238252","9.44752","roll back","1"
"14725376366864","3","0.47644615","-0.16519992","9.459491","roll back","1"
"14725396196902","3","0.47644615","-0.16759412","9.411607","roll back","1"
"14725416155748","3","0.5674258","-0.14604631","9.509769","roll back","1"
"14725436250825","3","0.45968673","-0.16519992","9.466674","roll back","1"
"14725456272325","3","0.5793968","-0.10534488","9.476251","roll back","1"
"14725476263351","3","0.46208093","-0.18914193","9.500193","roll back","1"
"14725496075479","3","0.50278234","-0.14604631","9.452309","roll back","1"
"14725516105710","3","0.47884035","-0.15322891","9.471462","roll back","1"
"14725536109748","3","0.48841715","-0.14844051","9.437943","roll back","1"
"14725556078594","3","0.49799395","-0.1388637","9.440337","roll back","1"
"14725575882710","3","0.46686932","-0.1388637","9.358934","roll back","1"
"14725595859171","3","0.557849","-0.11971009","9.40203","roll back","1"
"14725615790979","3","0.5267244","-0.16998832","9.452309","roll back","1"
"14725635931320","3","0.50038815","-0.20350714","9.490616","roll back","1"
"14725655793979","3","0.45729253","-0.18435353","9.500193","roll back","1"
"14725675683633","3","0.5291186","-0.1412579","9.481039","roll back","1"
"14725695687479","3","0.49081135","-0.15801731","9.466674","roll back","1"
"14725715749017","3","0.50038815","-0.14844051","9.445126","roll back","1"
"14725735665017","3","0.51954174","-0.15562311","9.435549","roll back","1"
"14725755682297","3","0.47405192","-0.16998832","9.433155","roll back","1"
"14725775671310","3","0.50038815","-0.1604115","9.440337","roll back","1"
"14725795501517","3","0.49799395","-0.15801731","9.457097","roll back","1"
"14725815588303","3","0.48841715","-0.15562311","9.476251","roll back","1"
"14725835404133","3","0.49081135","-0.16519992","9.473856","roll back","1"
"14725855470017","3","0.48123455","-0.16759412","9.471462","roll back","1"
"14725875463791","3","0.49559975","-0.15801731","9.483433","roll back","1"
"14725895247325","3","0.50038815","-0.16280572","9.476251","roll back","1"
"14725915350265","3","0.49559975","-0.14604631","9.464279","roll back","1"
"14725935293094","3","0.49559975","-0.15801731","9.461885","roll back","1"
"14725955125094","3","0.49081135","-0.15083471","9.452309","roll back","1"
"14725975149056","3","0.49081135","-0.1604115","9.452309","roll back","1"
"14725995158402","3","0.49320555","-0.15562311","9.457097","roll back","1"
"14726014967825","3","0.49799395","-0.15801731","9.44752","roll back","1"
"14726035025325","3","0.50278234","-0.15562311","9.466674","roll back","1"
"14726054858325","3","0.49320555","-0.16759412","9.469068","roll back","1"
"14726075018234","3","0.50278234","-0.15801731","9.469068","roll back","1"
"14726094966325","3","0.48841715","-0.15562311","9.466674","roll back","1"
"14726114928056","3","0.50278234","-0.16759412","9.457097","roll back","1"
"14726134893723","3","0.50038815","-0.15801731","9.459491","roll back","1"
"14726154702363","3","0.50517654","-0.16280572","9.452309","roll back","1"
"14726174841232","3","0.50278234","-0.15562311","9.459491","roll back","1"
"14726194830246","3","0.48841715","-0.14604631","9.452309","roll back","1"
"14726214788742","3","0.50517654","-0.15801731","9.457097","roll back","1"
"14726234663632","3","0.49320555","-0.1604115","9.459491","roll back","1"
"14726254648132","3","0.48841715","-0.1604115","9.454702","roll back","1"
"14726274694748","3","0.49799395","-0.15322891","9.471462","roll back","1"
"14726294653244","3","0.49320555","-0.15801731","9.466674","roll back","1"
"14726314576940","3","0.50517654","-0.15801731","9.476251","roll back","1"
"14726334515709","3","0.49081135","-0.15322891","9.440337","roll back","1"
"14726354411286","3","0.49559975","-0.15322891","9.466674","roll back","1"
"14726374306863","3","0.49320555","-0.15801731","9.464279","roll back","1"
"14726394298978","3","0.50038815","-0.15562311","9.469068","roll back","1"
"14726414216094","3","0.49320555","-0.1604115","9.449914","roll back","1"
"14726434362717","3","0.48602295","-0.16759412","9.471462","roll back","1"
"14726454225825","3","0.49081135","-0.15801731","9.454702","roll back","1"
"14726474273325","3","0.50278234","-0.15801731","9.452309","roll back","1"
"14726494238205","3","0.50278234","-0.16519992","9.445126","roll back","1"
"14726514039709","3","0.50278234","-0.15562311","9.459491","roll back","1"
"14726534155197","3","0.49559975","-0.1604115","9.466674","roll back","1"
"14726553988440","3","0.49559975","-0.15083471","9.454702","roll back","1"
"14726574054363","3","0.49799395","-0.16519992","9.459491","roll back","1"
"14726594030685","3","0.49559975","-0.16519992","9.454702","roll back","1"
"14726613989181","3","0.49799395","-0.15322891","9.457097","roll back","1"
"14726633813286","3","0.50038815","-0.15322891","9.457097","roll back","1"
"14726653734286","3","0.49320555","-0.15322891","9.461885","roll back","1"
"14726673819094","3","0.48841715","-0.16519992","9.461885","roll back","1"
"14726693711324","3","0.48841715","-0.16280572","9.459491","roll back","1"
"14726713587901","3","0.48602295","-0.15562311","9.461885","roll back","1"
"14726733567209","3","0.50038815","-0.1604115","9.466674","roll back","1"
"14726753698654","3","0.50038815","-0.16998832","9.461885","roll back","1"
"14726773592017","3","0.49320555","-0.16759412","9.469068","roll back","1"
"14726793437863","3","0.49081135","-0.1604115","9.466674","roll back","1"
"14726813574142","3","0.49799395","-0.1604115","9.454702","roll back","1"
"14726833355517","3","0.49559975","-0.15801731","9.461885","roll back","1"
"14726853477632","3","0.50038815","-0.16519992","9.454702","roll back","1"
"14726873449631","3","0.49081135","-0.1604115","9.454702","roll back","1"
"14726893245632","3","0.50038815","-0.15322891","9.454702","roll back","1"
"14726913322055","3","0.49320555","-0.15322891","9.461885","roll back","1"
"14726933325119","3","0.49559975","-0.14844051","9.44752","roll back","1"
"14726953122209","3","0.49320555","-0.1604115","9.454702","roll back","1"
"14726973211286","3","0.49799395","-0.15801731","9.459491","roll back","1"
"14726993170090","3","0.49799395","-0.16519992","9.466674","roll back","1"
"14727012967555","3","0.48602295","-0.1604115","9.471462","roll back","1"
"14727032927863","3","0.49320555","-0.16759412","9.466674","roll back","1"
"14727053005516","3","0.49320555","-0.15562311","9.466674","roll back","1"
"14727073004074","3","0.49799395","-0.16759412","9.454702","roll back","1"
"14727092770555","3","0.50038815","-0.16519992","9.452309","roll back","1"
"14727112914363","3","0.49559975","-0.16519992","9.44752","agitation","1"
"14727132668324","3","0.49320555","-0.1604115","9.459491","agitation","1"
"14727152622632","3","0.49799395","-0.1604115","9.464279","agitation","1"
"14727172617901","3","0.50278234","-0.16280572","9.44752","agitation","1"
"14727192545016","3","0.49320555","-0.16759412","9.452309","agitation","1"
"14727212531132","3","0.49320555","-0.16519992","9.452309","agitation","1"
"14727232526093","3","0.49081135","-0.15083471","9.457097","agitation","1"
"14727252515016","3","0.49081135","-0.1604115","9.461885","agitation","1"
"14727272395286","3","0.49081135","-0.15801731","9.454702","agitation","1"
"14727292429170","3","0.49320555","-0.16519992","9.457097","agitation","1"
"14727312400824","3","0.50757074","-0.1604115","9.44752","agitation","1"
"14727332434006","3","0.49559975","-0.15083471","9.464279","agitation","1"
"14727352177824","3","0.49559975","-0.15801731","9.452309","agitation","1"
"14727372148747","3","0.50517654","-0.16519992","9.459491","agitation","1"
"14727392309494","3","0.49320555","-0.15322891","9.464279","agitation","1"
"14727412223862","3","0.49320555","-0.16519992","9.452309","agitation","1"
"14727432217709","3","0.50757074","-0.15562311","9.452309","agitation","1"
"14727452002324","3","0.50278234","-0.1604115","9.454702","agitation","1"
"14727472040285","3","0.49081135","-0.16280572","9.466674","agitation","1"
"14727492011901","3","0.48841715","-0.15562311","9.473856","agitation","1"
"14727511883170","3","0.49559975","-0.15801731","9.469068","agitation","1"
"14727531799016","3","0.49320555","-0.15801731","9.445126","agitation","1"
"14727551859324","3","0.50038815","-0.15801731","9.449914","agitation","1"
"14727571722631","3","0.50278234","-0.15801731","9.440337","agitation","1"
"14727591705631","3","0.50278234","-0.16759412","9.543288","agitation","1"
"14727611852951","3","0.51235914","-0.1604115","9.43076","agitation","1"
"14727631733901","3","0.48841715","-0.17956513","9.459491","agitation","1"
"14727651572516","3","0.49559975","-0.16280572","9.404425","agitation","1"
"14727671616093","3","0.49799395","-0.1316811","9.416395","agitation","1"
"14727691686935","3","0.51714754","-0.14844051","9.552865","agitation","1"
"14727711645431","3","0.50038815","-0.1436521","9.464279","agitation","1"
"14727731387939","3","0.50757074","-0.1436521","9.423578","agitation","1"
"14727751505747","3","0.50278234","-0.1364695","9.428367","agitation","1"
"14727771343670","3","0.5434838","-0.16998832","9.454702","agitation","1"
"14727791315708","3","0.50278234","-0.1436521","9.370906","agitation","1"
"14727811443824","3","0.48123455","-0.18914193","9.586384","agitation","1"
"14727831239439","3","0.5554548","-0.16519992","9.593566","agitation","1"
"14727851348670","3","0.47644615","-0.14844051","9.461885","agitation","1"
"14727871299862","3","0.46926352","-0.1436521","9.552865","agitation","1"
"14727891157016","3","0.5267244","-0.16280572","9.464279","agitation","1"
"14727911080093","3","0.45968673","-0.17717093","9.440337","agitation","1"
"14727931211785","3","0.49081135","-0.16759412","9.445126","agitation","1"
"14727950991747","3","0.46686932","-0.1604115","9.346964","agitation","1"
"14727971080824","3","0.47405192","-0.16280572","9.404425","agitation","1"
"14727990905900","3","0.50757074","-0.15801731","9.469068","agitation","1"
"14728010952900","3","0.50757074","-0.17238252","9.440337","agitation","1"
"14728030892747","3","0.50996494","-0.18195933","9.473856","agitation","1"
"14728050876477","3","0.49799395","-0.18435353","9.437943","agitation","1"
"14728070777747","3","0.521936","-0.16759412","9.543288","agitation","1"
"14728090825439","3","0.5291186","-0.19153613","9.586384","agitation","1"
"14728110861939","3","0.49799395","-0.17956513","9.595961","agitation","1"
"14728130749593","3","0.49320555","-0.17717093","9.473856","agitation","1"
"14728150625631","3","0.47165772","-0.15562311","9.387665","agitation","1"
"14728170713554","3","0.45729253","-0.1412579","9.380483","agitation","1"
"14728190746823","3","0.48841715","-0.15322891","9.399636","agitation","1"
"14728210670362","3","0.49799395","-0.16998832","9.440337","agitation","1"
"14728230599977","3","0.49799395","-0.16280572","9.488221","agitation","1"
"14728250556862","3","0.51475334","-0.16759412","9.512163","agitation","1"
"14728270451362","3","0.48841715","-0.18435353","9.504981","agitation","1"
"14728290476131","3","0.50038815","-0.16519992","9.483433","agitation","1"
"14728310522208","3","0.50996494","-0.16759412","9.44752","agitation","1"
"14728330446285","3","0.49081135","-0.15801731","9.404425","agitation","1"
"14728350374708","3","0.49799395","-0.17477672","9.531317","agitation","1"
"14728370249977","3","0.48841715","-0.19393034","9.500193","agitation","1"
"14728390289054","3","0.49559975","-0.17238252","9.445126","agitation","1"
"14728410138631","3","0.47884035","-0.17956513","9.44752","agitation","1"
"14728430286092","3","0.49320555","-0.16998832","9.49301","agitation","1"
"14728450156977","3","0.49081135","-0.16998832","9.411607","agitation","1"
"14728470048939","3","0.45010993","-0.18674773","9.478644","agitation","1"
"14728490033323","3","0.45968673","-0.14604631","9.378088","agitation","1"
"14728510018054","3","0.45250413","-0.17717093","9.569624","agitation","1"
"14728530013438","3","0.47405192","-0.15801731","9.454702","agitation","1"
"14728550111015","3","0.46686932","-0.1436521","9.507375","agitation","1"
"14728569857708","3","0.45729253","-0.1316811","9.481039","agitation","1"
"14728589822169","3","0.47884035","-0.11731588","9.459491","agitation","1"
"14728609737323","3","0.45489833","-0.1412579","9.416395","agitation","1"
"14728629720708","3","0.47405192","-0.17956513","9.404425","agitation","1"
"14728649908371","3","0.45010993","-0.17717093","9.375694","agitation","1"
"14728669690669","3","0.44532153","-0.20829555","9.334992","agitation","1"
"14728689694554","3","0.4381389","-0.1388637","9.287108","agitation","1"
"14728709596169","3","0.46447513","-0.18914193","9.380483","agitation","1"
"14728729540938","3","0.47165772","-0.19632454","9.514558","agitation","1"
"14728749492631","3","0.50517654","-0.24660277","9.725247","agitation","1"
"14728769689865","3","0.5267244","-0.18674773","9.746795","agitation","1"
"14728789461515","3","0.5291186","-0.17477672","9.512163","agitation","1"
"14728809524631","3","0.49320555","-0.1604115","9.423578","agitation","1"
"14728829410861","3","0.48602295","-0.15322891","9.368511","agitation","1"
"14728849528746","3","0.47884035","-0.1436521","9.31105","agitation","1"
"14728869453784","3","0.50038815","-0.1388637","9.380483","agitation","1"
"14728889255169","3","0.50757074","-0.15562311","9.469068","agitation","1"
"14728909219054","3","0.51235914","-0.15562311","9.481039","agitation","1"
"14728929164477","3","0.48841715","-0.17238252","9.536105","agitation","1"
"14728949270361","3","0.51714754","-0.12928689","9.533711","agitation","1"
"14728969099938","3","0.46686932","-0.20829555","9.440337","agitation","1"
"14728989239015","3","0.48362875","-0.1388637","9.433155","agitation","1"
"14729009110054","3","0.49320555","-0.18435353","9.485827","agitation","1"
"14729028978746","3","0.51235914","-0.15322891","9.461885","agitation","1"
"14729048972207","3","0.45489833","-0.17717093","9.469068","agitation","1"
"14729068905592","3","0.521936","-0.1604115","9.478644","agitation","1"
"14729088828053","3","0.48602295","-0.19632454","9.454702","agitation","1"
"14729108852169","3","0.51954174","-0.15322891","9.41879","agitation","1"
"14729128751592","3","0.47165772","-0.17477672","9.437943","agitation","1"
"14729148931808","3","0.50038815","-0.16280572","9.471462","agitation","1"
"14729168841053","3","0.49081135","-0.16519992","9.481039","agitation","1"
"14729188683630","3","0.50996494","-0.17717093","9.490616","agitation","1"
"14729208718015","3","0.50278234","-0.16759412","9.445126","agitation","1"
"14729228563246","3","0.50757074","-0.1604115","9.442732","agitation","1"
"14729248713323","3","0.50038815","-0.17238252","9.457097","agitation","1"
"14729268467707","3","0.49559975","-0.17477672","9.466674","agitation","1"
"14729288464515","3","0.50278234","-0.15562311","9.464279","agitation","1"
"14729308445784","3","0.49559975","-0.16519992","9.471462","agitation","1"
"14729328358861","3","0.48602295","-0.15083471","9.454702","agitation","1"
"14729348453053","3","0.49320555","-0.1604115","9.464279","agitation","1"
"14729368358169","3","0.48362875","-0.15562311","9.459491","agitation","1"
"14729388281323","3","0.50517654","-0.15801731","9.461885","agitation","1"
"14729408213899","3","0.49320555","-0.15562311","9.483433","agitation","1"
"14729428335822","3","0.48602295","-0.1604115","9.483433","agitation","1"
"14729448257361","3","0.49320555","-0.16759412","9.476251","agitation","1"
"14729468161399","3","0.49081135","-0.16519992","9.459491","agitation","1"
"14729488043630","3","0.48123455","-0.16519992","9.459491","agitation","1"
"14729508081015","3","0.48841715","-0.16519992","9.473856","agitation","1"
"14729527938169","3","0.50278234","-0.16519992","9.459491","agitation","1"
"14729547992822","3","0.50038815","-0.16280572","9.471462","agitation","1"
"14729567983361","3","0.49320555","-0.16519992","9.459491","agitation","1"
"14729587832553","3","0.49799395","-0.17238252","9.454702","agitation","1"
"14729607776053","3","0.49559975","-0.16998832","9.454702","agitation","1"
"14729627906207","3","0.48602295","-0.16759412","9.454702","agitation","1"
"14729647829553","3","0.49559975","-0.1604115","9.466674","agitation","1"
"14729667618707","3","0.50278234","-0.15083471","9.454702","agitation","1"
"14729687648745","3","0.49799395","-0.16280572","9.449914","agitation","1"
"14729707697399","3","0.49559975","-0.1604115","9.449914","agitation","1"
"14729727682168","3","0.50517654","-0.15801731","9.464279","agitation","1"
"14729747712091","3","0.49559975","-0.16280572","9.466674","agitation","1"
"14729767731438","3","0.50278234","-0.16759412","9.459491","agitation","1"
"14729787476053","3","0.50038815","-0.15562311","9.457097","agitation","1"
"14729807444899","3","0.50038815","-0.1604115","9.459491","agitation","1"
"14729827511553","3","0.50038815","-0.16280572","9.464279","agitation","1"
"14729847423899","3","0.48602295","-0.17238252","9.459491","agitation","1"
"14729867544361","3","0.49559975","-0.1604115","9.466674","agitation","1"
"14729887435284","3","0.49320555","-0.16759412","9.459491","agitation","1"
"14729907261284","3","0.49799395","-0.15322891","9.452309","agitation","1"
"14729927405822","3","0.49799395","-0.1604115","9.464279","agitation","1"
"14729947485275","3","0.49081135","-0.16759412","9.457097","agitation","1"
"14729967229514","3","0.49320555","-0.1604115","9.464279","agitation","1"
"14729987236822","3","0.49559975","-0.15562311","9.469068","agitation","1"
"14730007159630","3","0.48602295","-0.1604115","9.466674","agitation","1"
"14730027109014","3","0.49320555","-0.16519992","9.461885","agitation","1"
"14730047206553","3","0.49799395","-0.16519992","9.459491","agitation","1"
"14730067192399","3","0.48841715","-0.17477672","9.452309","agitation","1"
"14730087225265","3","0.49559975","-0.16280572","9.459491","agitation","1"
"14730107214279","3","0.48602295","-0.15801731","9.473856","agitation","1"
"14730127057399","3","0.49081135","-0.16519992","9.466674","agitation","1"
"14730147046937","3","0.50278234","-0.15801731","9.461885","agitation","1"
"14730167006591","3","0.49559975","-0.16280572","9.454702","agitation","1"
"14730186782207","3","0.49559975","-0.1604115","9.469068","agitation","1"
"14730206886322","3","0.49799395","-0.16759412","9.464279","agitation","1"
"14730226946053","3","0.48362875","-0.16519992","9.461885","agitation","1"
"14730246848707","3","0.49081135","-0.16998832","9.464279","agitation","1"
"14730266884783","3","0.50038815","-0.16759412","9.457097","agitation","1"
"14730286871262","3","0.49559975","-0.1604115","9.457097","agitation","1"
"14730306747783","3","0.50278234","-0.16280572","9.452309","agitation","1"
"14730326541091","3","0.49320555","-0.16519992","9.457097","agitation","1"
"14730346593514","3","0.48841715","-0.15083471","9.473856","agitation","1"
"14730366450745","3","0.49320555","-0.15801731","9.464279","agitation","1"
"14730386663742","3","0.48602295","-0.16519992","9.449914","agitation","1"
"14730406493745","3","0.49799395","-0.15562311","9.459491","agitation","1"
"14730426397322","3","0.50038815","-0.17477672","9.459491","agitation","1"
"14730446529783","3","0.49559975","-0.15801731","9.464279","agitation","1"
"14730466304706","3","0.48841715","-0.16759412","9.466674","agitation","1"
"14730486278283","3","0.49320555","-0.1604115","9.466674","agitation","1"
"14730506346052","3","0.49320555","-0.16519992","9.459491","agitation","1"
"14730526373215","3","0.49799395","-0.15801731","9.464279","agitation","1"
"14730546261899","3","0.49320555","-0.1604115","9.454702","agitation","1"
"14730566113745","3","0.48841715","-0.15562311","9.454702","agitation","1"
"14730586097322","3","0.48841715","-0.1604115","9.473856","agitation","1"
"14730606077091","3","0.48841715","-0.14844051","9.457097","agitation","1"
"14730626083475","3","0.49799395","-0.16759412","9.457097","agitation","1"
"14730646017399","3","0.50038815","-0.1604115","9.471462","agitation","1"
"14730665995129","3","0.49799395","-0.15801731","9.459491","agitation","1"
"14730686102219","3","0.49559975","-0.16759412","9.469068","agitation","1"
"14730705805822","3","0.49559975","-0.15083471","9.471462","agitation","1"
"14730725756745","3","0.49081135","-0.16998832","9.464279","agitation","1"
"14730745921706","3","0.49559975","-0.16998832","9.469068","agitation","1"
"14730765804052","3","0.49799395","-0.1604115","9.452309","agitation","1"
"14730785894699","3","0.49081135","-0.1604115","9.454702","agitation","1"
"14730805853195","3","0.49320555","-0.16519992","9.478644","agitation","1"
"14730825757783","3","0.50278234","-0.17477672","9.454702","agitation","1"
"14730845687052","3","0.48123455","-0.15322891","9.466674","agitation","1"
"14730865759201","3","0.49320555","-0.16759412","9.473856","agitation","1"
"14730885494014","3","0.49559975","-0.16519992","9.461885","agitation","1"
"14730905676193","3","0.49559975","-0.1604115","9.449914","agitation","1"
"14730925587283","3","0.49081135","-0.16759412","9.473856","agitation","1"
"14730945593185","3","0.49799395","-0.16519992","9.473856","agitation","1"
"14730965522129","3","0.49559975","-0.16280572","9.469068","agitation","1"
"14730985272629","3","0.49559975","-0.1604115","9.459491","agitation","1"
"14731005468674","3","0.49081135","-0.16759412","9.454702","agitation","1"
"14731025180129","3","0.49320555","-0.17477672","9.466674","agitation","1"
"14731045129975","3","0.49320555","-0.16759412","9.466674","agitation","1"
"14731065149360","3","0.49320555","-0.1604115","9.466674","agitation","1"
"14731085113283","3","0.49320555","-0.16759412","9.457097","agitation","1"
"14731105067552","3","0.49559975","-0.16759412","9.473856","sit up","1"
"14731125137783","3","0.50757074","-0.17238252","9.459491","sit up","1"
"14731144936090","3","0.50517654","-0.15801731","9.459491","sit up","1"
"14731165136642","3","0.49320555","-0.16759412","9.464279","sit up","1"
"14731184804437","3","0.49081135","-0.16280572","9.485827","sit up","1"
"14731204816475","3","0.49799395","-0.16519992","9.457097","sit up","1"
"14731224783821","3","0.49081135","-0.1604115","9.452309","sit up","1"
"14731244805975","3","0.50038815","-0.16280572","9.452309","sit up","1"
"14731264748052","3","0.49559975","-0.16519992","9.459491","sit up","1"
"14731284887619","3","0.50517654","-0.16759412","9.461885","sit up","1"
"14731304597590","3","0.48841715","-0.15562311","9.469068","sit up","1"
"14731324761706","3","0.50038815","-0.15562311","9.461885","sit up","1"
"14731344665975","3","0.49320555","-0.16759412","9.457097","sit up","1"
"14731364592821","3","0.50038815","-0.16998832","9.457097","sit up","1"
"14731384491629","3","0.48362875","-0.15801731","9.459491","sit up","1"
"14731404415321","3","0.49799395","-0.1604115","9.464279","sit up","1"
"14731424398706","3","0.49081135","-0.16759412","9.459491","sit up","1"
"14731444423475","3","0.48841715","-0.16998832","9.433155","sit up","1"
"14731464392321","3","0.49081135","-0.14844051","9.437943","sit up","1"
"14731484406513","3","0.50278234","-0.16759412","9.481039","sit up","1"
"14731504461594","3","0.50038815","-0.1604115","9.483433","sit up","1"
"14731524204975","3","0.50757074","-0.17238252","9.500193","sit up","1"
"14731544346590","3","0.50757074","-0.16280572","9.454702","sit up","1"
"14731564184206","3","0.48841715","-0.15083471","9.392453","sit up","1"
"14731584115513","3","0.49081135","-0.15322891","9.459491","sit up","1"
"14731604137744","3","0.50757074","-0.17238252","9.454702","sit up","1"
"14731623964206","3","0.50278234","-0.14844051","9.435549","sit up","1"
"14731644089475","3","0.49559975","-0.17956513","9.497798","sit up","1"
"14731663945513","3","0.50996494","-0.16280572","9.497798","sit up","1"
"14731683890398","3","0.48602295","-0.16759412","9.464279","sit up","1"
"14731704107590","3","0.49320555","-0.14604631","9.425972","sit up","1"
"14731723932205","3","0.50038815","-0.16759412","9.471462","sit up","1"
"14731743782167","3","0.48841715","-0.17956513","9.437943","sit up","1"
"14731763736167","3","0.51954174","-0.1604115","9.469068","sit up","1"
"14731783728513","3","0.50038815","-0.16759412","9.497798","sit up","1"
"14731803886244","3","0.50757074","-0.16759412","9.471462","sit up","1"
"14731823613744","3","0.50517654","-0.18674773","9.452309","sit up","1"
"14731843704744","3","0.48362875","-0.16998832","9.44752","sit up","1"
"14731863798628","3","0.5243302","-0.15562311","9.464279","sit up","1"
"14731883532744","3","0.47644615","-0.1388637","9.459491","sit up","1"
"14731903505551","3","0.48602295","-0.18195933","9.445126","sit up","1"
"14731923712082","3","0.51235914","-0.17238252","9.471462","sit up","1"
"14731943463628","3","0.5363012","-0.17238252","9.457097","sit up","1"
"14731963394205","3","0.5482722","-0.1412579","9.416395","sit up","1"
"14731983550474","3","0.50278234","-0.1436521","9.469068","sit up","1"
"14732003269551","3","0.51475334","-0.1436521","9.397242","sit up","1"
"14732023496705","3","0.5506664","-0.14844051","9.560047","sit up","1"
"14732043318013","3","0.5530606","-0.20590134","9.758766","sit up","1"
"14732063293167","3","0.5243302","-0.20111294","9.583989","sit up","1"
"14732083231359","3","0.41180268","-0.23702596","9.375694","sit up","1"
"14732103338547","3","0.50996494","-0.17238252","9.454702","sit up","1"
"14732123185628","3","0.3854665","-0.17238252","9.394848","sit up","1"
"14732143225021","3","0.5770026","-0.18914193","9.382876","sit up","1"
"14732163068705","3","0.40940848","-0.19153613","9.440337","sit up","1"
"14732182940244","3","0.5554548","-0.14604631","9.411607","sit up","1"
"14732203061551","3","0.5267244","-0.20829555","9.349358","sit up","1"
"14732223120041","3","0.5434838","-0.16759412","9.363723","sit up","1"
"14732242808744","3","0.50517654","-0.17956513","9.586384","sit up","1"
"14732262793551","3","0.5626374","-0.15562311","9.524135","sit up","1"
"14732282875244","3","0.581791","-0.18435353","9.564836","sit up","1"
"14732302728205","3","0.521936","-0.19393034","9.500193","sit up","1"
"14732322671590","3","0.5434838","-0.17477672","9.473856","sit up","1"
"14732342901535","3","0.533907","-0.15083471","9.476251","sit up","1"
"14732362612205","3","0.5482722","-0.16519992","9.569624","sit up","1"
"14732382562359","3","0.5530606","-0.12210429","9.528923","sit up","1"
"14732402714128","3","0.49559975","-0.20590134","9.452309","sit up","1"
"14732422653013","3","0.49799395","-0.15801731","9.435549","sit up","1"
"14732442404205","3","0.545878","-0.21308395","9.516952","sit up","1"
"14732462418859","3","0.39025488","-0.17956513","9.346964","sit up","1"
"14732482452782","3","0.5410896","-0.11252748","9.344569","sit up","1"
"14732502600021","3","0.45250413","-0.095768064","9.44752","sit up","1"
"14732522273436","3","0.48841715","-0.15083471","9.516952","sit up","1"
"14732542517014","3","0.47644615","-0.1388637","9.43076","sit up","1"
"14732562365436","3","0.49799395","-0.11971009","9.3421755","sit up","1"
"14732582343628","3","0.44532153","-0.11971009","9.579201","sit up","1"
"14732602346474","3","0.49799395","-0.14604631","9.500193","sit up","1"
"14732622211051","3","0.47165772","-0.12928689","9.404425","sit up","1"
"14732642158628","3","0.5243302","-0.1436521","9.495404","sit up","1"
"14732662200628","3","0.45010993","-0.1316811","9.449914","sit up","1"
"14732682052243","3","0.48602295","-0.15083471","9.526528","sit up","1"
"14732701987089","3","0.44532153","-0.12928689","9.428367","sit up","1"
"14732722053166","3","0.50757074","-0.1388637","9.512163","sit up","1"
"14732741939359","3","0.47165772","-0.11731588","9.423578","sit up","1"
"14732761869859","3","0.46447513","-0.110133275","9.399636","sit up","1"
"14732781939435","3","0.46926352","-0.11731588","9.490616","sit up","1"
"14732801768205","3","0.45968673","-0.14604631","9.478644","sit up","1"
"14732821948820","3","0.48123455","-0.079008654","9.368511","sit up","1"
"14732841848128","3","0.46686932","-0.1316811","9.519346","sit up","1"
"14732861638089","3","0.47405192","-0.09816227","9.399636","sit up","1"
"14732881608820","3","0.47884035","-0.1340753","9.481039","sit up","1"
"14732901682820","3","0.49081135","-0.095768064","9.476251","sit up","1"
"14732921527897","3","0.5434838","-0.15562311","9.466674","sit up","1"
"14732941751435","3","0.47165772","-0.10534488","9.421184","sit up","1"
"14732961627435","3","0.48362875","-0.14604631","9.485827","sit up","1"
"14732981597358","3","0.47165772","-0.110133275","9.502586","sit up","1"
"14733001381897","3","0.47165772","-0.11492168","9.478644","sit up","1"
"14733021487935","3","0.46208093","-0.11252748","9.452309","sit up","1"
"14733041601486","3","0.45010993","-0.1388637","9.423578","sit up","1"
"14733061278704","3","0.4381389","-0.14604631","9.483433","sit up","1"
"14733081504743","3","0.4381389","-0.12928689","9.433155","sit up","1"
"14733101318204","3","0.46447513","-0.10295067","9.435549","sit up","1"
"14733121344935","3","0.4381389","-0.12928689","9.459491","sit up","1"
"14733141187781","3","0.45968673","-0.10534488","9.476251","sit up","1"
"14733161129627","3","0.46208093","-0.11731588","9.433155","sit up","1"
"14733181118781","3","0.46926352","-0.12449849","9.478644","sit up","1"
"14733201070627","3","0.48841715","-0.12928689","9.476251","sit up","1"
"14733221101589","3","0.46447513","-0.12449849","9.466674","sit up","1"
"14733241040627","3","0.48841715","-0.110133275","9.485827","sit up","1"
"14733261013666","3","0.47884035","-0.110133275","9.445126","sit up","1"
"14733281256027","3","0.46686932","-0.10295067","9.469068","sit up","1"
"14733300967320","3","0.46686932","-0.11492168","9.512163","sit up","1"
"14733321037743","3","0.47165772","-0.11731588","9.445126","sit up","1"
"14733341051166","3","0.45729253","-0.11492168","9.481039","sit up","1"
"14733360992474","3","0.46208093","-0.107739076","9.435549","sit up","1"
"14733380844743","3","0.46208093","-0.11971009","9.43076","sit up","1"
"14733401098556","3","0.45968673","-0.107739076","9.485827","sit up","1"
"14733420936858","3","0.47165772","-0.12210429","9.457097","sit up","1"
"14733440745935","3","0.46208093","-0.11731588","9.445126","sit up","1"
"14733460820166","3","0.47884035","-0.11731588","9.454702","sit up","1"
"14733480896781","3","0.46447513","-0.11492168","9.433155","sit up","1"
"14733500921555","3","0.45250413","-0.12689269","9.476251","sit up","1"
"14733520624089","3","0.45489833","-0.11492168","9.540894","sit up","1"
"14733540708089","3","0.50757074","-0.11492168","9.40203","sit up","1"
"14733560522512","3","0.4213795","-0.10534488","9.536105","sit up","1"
"14733580489935","3","0.47405192","-0.11971009","9.454702","sit up","1"
"14733600430973","3","0.46926352","-0.107739076","9.397242","sit up","1"
"14733620703049","3","0.45010993","-0.12210429","9.466674","sit up","1"
"14733640419935","3","0.45489833","-0.12449849","9.531317","sit up","1"
"14733660475243","3","0.4309563","-0.093373865","9.481039","sit up","1"
"14733680363858","3","0.4309563","-0.09816227","9.433155","sit up","1"
"14733700223819","3","0.45729253","-0.10055647","9.466674","sit up","1"
"14733720417204","3","0.46447513","-0.095768064","9.481039","sit up","1"
"14733740151742","3","0.45010993","-0.10055647","9.461885","sit up","1"
"14733760119396","3","0.46447513","-0.107739076","9.459491","sit up","1"
"14733780264781","3","0.45489833","-0.095768064","9.461885","sit up","1"
"14733800052627","3","0.46447513","-0.10295067","9.461885","sit up","1"
"14733820212358","3","0.44771573","-0.11252748","9.485827","sit up","1"
"14733840307541","3","0.46447513","-0.107739076","9.464279","sit up","1"
"14733859995242","3","0.45729253","-0.10534488","9.445126","sit up","1"
"14733880079935","3","0.4405331","-0.10534488","9.49301","sit up","1"
"14733899962242","3","0.46208093","-0.10295067","9.476251","sit up","1"
"14733920037281","3","0.45968673","-0.10534488","9.445126","sit up","1"
"14733940161056","3","0.45010993","-0.107739076","9.473856","sit up","1"
"14733959962935","3","0.45250413","-0.110133275","9.473856","sit up","1"
"14733979828435","3","0.45729253","-0.107739076","9.466674","sit up","1"
"14733999837819","3","0.45250413","-0.09816227","9.478644","sit up","1"
"14734019822165","3","0.46208093","-0.10534488","9.459491","sit up","1"
"14734039712127","3","0.45489833","-0.10295067","9.454702","sit up","1"
"14734059832011","3","0.45968673","-0.107739076","9.473856","sit up","1"
"14734079666896","3","0.46686932","-0.10295067","9.452309","sit up","1"
"14734099920578","3","0.45729253","-0.10295067","9.452309","sit up","1"
"14734119788935","3","0.47405192","-0.10295067","9.459491","sit up","1"
"14734139837570","3","0.45729253","-0.107739076","9.49301","sit up","1"
"14734159778973","3","0.45489833","-0.10055647","9.464279","sit up","1"
"14734179561819","3","0.45489833","-0.10295067","9.461885","sit up","1"
"14734199621934","3","0.45968673","-0.110133275","9.473856","sit up","1"
"14734219522165","3","0.45250413","-0.110133275","9.478644","sit up","1"
"14734239696627","3","0.45968673","-0.110133275","9.466674","sit up","1"
"14734259572550","3","0.46447513","-0.10534488","9.471462","sit up","1"
"14734279549588","3","0.45968673","-0.10534488","9.464279","sit up","1"
"14734299316242","3","0.45010993","-0.110133275","9.457097","sit up","1"
"14734319292511","3","0.45010993","-0.10295067","9.461885","sit up","1"
"14734339193550","3","0.45729253","-0.107739076","9.478644","sit up","1"
"14734359342319","3","0.45489833","-0.110133275","9.461885","sit up","1"
"14734379265819","3","0.45489833","-0.110133275","9.464279","sit up","1"
"14734399356973","3","0.45968673","-0.10534488","9.464279","sit up","1"
"14734419175165","3","0.45968673","-0.107739076","9.464279","sit up","1"
"14734439066588","3","0.45968673","-0.095768064","9.464279","sit up","1"
"14734459171703","3","0.45729253","-0.10055647","9.452309","sit up","1"
"14734479172742","3","0.45729253","-0.10295067","9.466674","sit up","1"
"14734499072280","3","0.45729253","-0.10534488","9.471462","sit up","1"
"14734518945896","3","0.45489833","-0.10055647","9.471462","sit up","1"
"14734538976857","3","0.45489833","-0.10055647","9.473856","sit up","1"
"14734559068088","3","0.46208093","-0.107739076","9.466674","sit up","1"
"14734579107590","3","0.46208093","-0.11252748","9.471462","sit up","1"
"14734598796703","3","0.45250413","-0.10534488","9.461885","sit up","1"
"14734618867280","3","0.45729253","-0.09816227","9.473856","sit up","1"
"14734638852550","3","0.45729253","-0.110133275","9.469068","sit up","1"
"14734658771165","3","0.45729253","-0.11731588","9.459491","sit up","1"
"14734678783973","3","0.45968673","-0.10295067","9.464279","sit up","1"
"14734698889084","3","0.45250413","-0.107739076","9.473856","sit up","1"
"14734718847580","3","0.45250413","-0.10055647","9.473856","sit up","1"
"14734738647396","3","0.45729253","-0.110133275","9.473856","sit up","1"
"14734758764572","3","0.46208093","-0.10295067","9.466674","sit up","1"
"14734778632126","3","0.45010993","-0.10534488","9.457097","sit up","1"
"14734798658165","3","0.45250413","-0.10534488","9.459491","sit up","1"
"14734818469280","3","0.45010993","-0.110133275","9.461885","sit up","1"
"14734838417280","3","0.45250413","-0.10534488","9.471462","sit up","1"
"14734858499934","3","0.46447513","-0.09816227","9.469068","sit up","1"
"14734878465434","3","0.45250413","-0.10295067","9.469068","sit up","1"
"14734898290549","3","0.45489833","-0.110133275","9.461885","sit up","1"
"14734918342242","3","0.45250413","-0.107739076","9.454702","sit up","1"
"14734938169588","3","0.45010993","-0.10534488","9.469068","sit up","1"
"14734958234588","3","0.45729253","-0.10055647","9.471462","sit up","1"
"14734978293895","3","0.45968673","-0.10295067","9.469068","sit up","1"
"14734998047895","3","0.45968673","-0.10534488","9.461885","sit up","1"
"14735018050126","3","0.46926352","-0.10534488","9.464279","sit up","1"
"14735038202703","3","0.45250413","-0.10055647","9.461885","sit up","1"
"14735058119049","3","0.45729253","-0.10295067","9.461885","sit up","1"
"14735078120549","3","0.45729253","-0.10295067","9.473856","sit up","1"
"14735098062049","3","0.45729253","-0.10534488","9.473856","sit up","1"
"14735117869741","3","0.45729253","-0.10055647","9.459491","stand up","1"
"14735137802203","3","0.46208093","-0.10295067","9.466674","stand up","1"
"14735157772011","3","0.45729253","-0.10534488","9.471462","stand up","1"
"14735177786549","3","0.46208093","-0.110133275","9.466674","stand up","1"
"14735197721664","3","0.46447513","-0.10055647","9.464279","stand up","1"
"14735217789088","3","0.46447513","-0.10055647","9.461885","stand up","1"
"14735237693088","3","0.46447513","-0.11252748","9.471462","stand up","1"
"14735257715741","3","0.46447513","-0.095768064","9.459491","stand up","1"
"14735277786588","3","0.46686932","-0.11731588","9.464279","stand up","1"
"14735297715126","3","0.46447513","-0.10055647","9.457097","stand up","1"
"14735317572011","3","0.45489833","-0.10295067","9.457097","stand up","1"
"14735337625318","3","0.45729253","-0.095768064","9.459491","stand up","1"
"14735357461703","3","0.47405192","-0.10295067","9.440337","stand up","1"
"14735377424741","3","0.47165772","-0.10295067","9.437943","stand up","1"
"14735397485011","3","0.46926352","-0.10534488","9.497798","stand up","1"
"14735417399934","3","0.47405192","-0.107739076","9.481039","stand up","1"
"14735437475626","3","0.46926352","-0.11492168","9.519346","stand up","1"
"14735457353626","3","0.46926352","-0.095768064","9.478644","stand up","1"
"14735477313164","3","0.45729253","-0.10055647","9.452309","stand up","1"
"14735497555126","3","0.46447513","-0.10295067","9.485827","stand up","1"
"14735517523117","3","0.45489833","-0.10534488","9.445126","stand up","1"
"14735537415087","3","0.47884035","-0.10055647","9.449914","stand up","1"
"14735557373626","3","0.4405331","-0.10055647","9.457097","stand up","1"
"14735577185318","3","0.45010993","-0.093373865","9.485827","stand up","1"
"14735597041241","3","0.45250413","-0.10534488","9.452309","stand up","1"
"14735617011241","3","0.4429273","-0.107739076","9.459491","stand up","1"
"14735637135972","3","0.47165772","-0.090979666","9.483433","stand up","1"
"14735656899087","3","0.46447513","-0.09816227","9.466674","stand up","1"
"14735676996126","3","0.45729253","-0.10295067","9.433155","stand up","1"
"14735696871010","3","0.45968673","-0.107739076","9.481039","stand up","1"
"14735716792164","3","0.45489833","-0.10295067","9.481039","stand up","1"
"14735736780010","3","0.46926352","-0.107739076","9.512163","stand up","1"
"14735756788164","3","0.44532153","-0.107739076","9.445126","stand up","1"
"14735776679933","3","0.45968673","-0.107739076","9.490616","stand up","1"
"14735796664856","3","0.45729253","-0.095768064","9.478644","stand up","1"
"14735816626549","3","0.45489833","-0.10055647","9.44752","stand up","1"
"14735836658049","3","0.45010993","-0.10295067","9.507375","stand up","1"
"14735856529202","3","0.45250413","-0.088585466","9.378088","stand up","1"
"14735876721202","3","0.44532153","-0.110133275","9.516952","stand up","1"
"14735896754395","3","0.4405331","-0.10055647","9.514558","stand up","1"
"14735916389587","3","0.4141969","-0.110133275","9.516952","stand up","1"
"14735936380510","3","0.40462008","-0.095768064","9.495404","stand up","1"
"14735956351279","3","0.40940848","-0.090979666","9.454702","stand up","1"
"14735976271433","3","0.4165911","-0.11252748","9.421184","stand up","1"
"14735996246510","3","0.48123455","-0.12210429","9.461885","stand up","1"
"14736016387087","3","0.61291564","-0.1364695","9.509769","stand up","1"
"14736036172241","3","0.4261679","-0.22266077","9.560047","stand up","1"
"14736056133395","3","0.4285621","-0.1412579","9.416395","stand up","1"
"14736075932519","3","0.39504328","-0.033518825","9.473856","stand up","1"
"14736095891015","3","0.4357447","-0.11492168","9.43076","stand up","1"
"14736115849511","3","0.3878607","-0.11252748","9.457097","stand up","1"
"14736135808007","3","0.47405192","-0.10295067","9.509769","stand up","1"
"14736155797021","3","0.4189853","-0.11252748","9.440337","stand up","1"
"14736175755517","3","0.4261679","-0.093373865","9.466674","stand up","1"
"14736195714013","3","0.4357447","-0.11971009","9.457097","stand up","1"
"14736215672509","3","0.4357447","-0.11252748","9.473856","stand up","1"
"14736235631005","3","0.4429273","-0.11731588","9.461885","stand up","1"
"14736255589501","3","0.4261679","-0.110133275","9.476251","stand up","1"
"14736275547997","3","0.4333505","-0.10055647","9.459491","stand up","1"
"14736295506493","3","0.44532153","-0.11971009","9.478644","stand up","1"
"14736315464990","3","0.4405331","-0.10534488","9.464279","stand up","1"
"14736335423486","3","0.44771573","-0.11492168","9.461885","stand up","1"
"14736355351464","3","0.4333505","-0.107739076","9.469068","stand up","1"
"14736375340478","3","0.4333505","-0.110133275","9.471462","stand up","1"
"14736395298974","3","0.4309563","-0.107739076","9.466674","stand up","1"
"14736415257470","3","0.4333505","-0.110133275","9.478644","stand up","1"
"14736435215966","3","0.4357447","-0.107739076","9.466674","stand up","1"
"14736455204980","3","0.4285621","-0.110133275","9.464279","stand up","1"
"14736475163476","3","0.44771573","-0.11492168","9.464279","stand up","1"
"14736495121972","3","0.4285621","-0.12449849","9.476251","stand up","1"
"14736515080468","3","0.4261679","-0.10055647","9.476251","stand up","1"
"14736535038964","3","0.4285621","-0.10055647","9.471462","stand up","1"
"14736554997460","3","0.4333505","-0.10295067","9.471462","stand up","1"
"14736574955956","3","0.4381389","-0.110133275","9.466674","stand up","1"
"14736594914452","3","0.4333505","-0.107739076","9.445126","stand up","1"
"14736614872949","3","0.4333505","-0.10534488","9.461885","stand up","1"
"14736634831445","3","0.4189853","-0.110133275","9.466674","stand up","1"
"14736654820458","3","0.4381389","-0.110133275","9.473856","stand up","1"
"14736674778954","3","0.4285621","-0.11252748","9.476251","stand up","1"
"14736694737450","3","0.4381389","-0.110133275","9.466674","stand up","1"
"14736714695947","3","0.4405331","-0.10295067","9.464279","stand up","1"
"14736734654443","3","0.4381389","-0.107739076","9.478644","stand up","1"
"14736754582421","3","0.4405331","-0.10295067","9.471462","stand up","1"
"14736774571435","3","0.4357447","-0.107739076","9.478644","stand up","1"
"14736794529931","3","0.4429273","-0.10055647","9.469068","stand up","1"
"14736814488427","3","0.4309563","-0.110133275","9.464279","stand up","1"
"14736834446923","3","0.4237737","-0.110133275","9.454702","stand up","1"
"14736854405419","3","0.4381389","-0.110133275","9.473856","stand up","1"
"14736874363915","3","0.4333505","-0.107739076","9.469068","stand up","1"
"14736894322411","3","0.4381389","-0.11492168","9.469068","stand up","1"
"14736914280907","3","0.4285621","-0.10534488","9.464279","stand up","1"
"14736934239404","3","0.4333505","-0.110133275","9.459491","stand up","1"
"14736954228417","3","0.44532153","-0.107739076","9.464279","stand up","1"
"14736974217431","3","0.4333505","-0.11252748","9.469068","stand up","1"
"14736994175927","3","0.4381389","-0.107739076","9.473856","stand up","1"
"14737014134423","3","0.4357447","-0.107739076","9.473856","stand up","1"
"14737034092919","3","0.4357447","-0.10295067","9.464279","stand up","1"
"14737054051415","3","0.4309563","-0.110133275","9.457097","stand up","1"
"14737074009911","3","0.4357447","-0.107739076","9.461885","stand up","1"
"14737093968407","3","0.4381389","-0.10295067","9.476251","stand up","1"
"14737113926904","3","0.4405331","-0.11492168","9.471462","stand up","1"
"14737133915917","3","0.4309563","-0.107739076","9.469068","stand up","1"
"14737153843896","3","0.4381389","-0.11731588","9.461885","stand up","1"
"14737173832909","3","0.4381389","-0.110133275","9.464279","stand up","1"
"14737193791406","3","0.4381389","-0.107739076","9.471462","stand up","1"
"14737213749902","3","0.4381389","-0.11252748","9.469068","stand up","1"
"14737233738915","3","0.4357447","-0.107739076","9.471462","stand up","1"
"14737253697411","3","0.4285621","-0.11492168","9.473856","stand up","1"
"14737273686425","3","0.4357447","-0.10295067","9.457097","stand up","1"
"14737293644921","3","0.44532153","-0.10534488","9.466674","stand up","1"
"14737313603417","3","0.4357447","-0.107739076","9.459491","stand up","1"
"14737333561913","3","0.4285621","-0.107739076","9.481039","stand up","1"
"14737353520409","3","0.4429273","-0.107739076","9.464279","stand up","1"
"14737373478906","3","0.4381389","-0.11252748","9.466674","stand up","1"
"14737393437402","3","0.4357447","-0.110133275","9.457097","stand up","1"
"14737413395898","3","0.4309563","-0.107739076","9.459491","stand up","1"
"14737433354394","3","0.4381389","-0.10534488","9.471462","stand up","1"
"14737453343407","3","0.4357447","-0.110133275","9.466674","stand up","1"
"14737473301904","3","0.4333505","-0.10055647","9.473856","stand up","1"
"14737493260400","3","0.4333505","-0.11492168","9.469068","stand up","1"
"14737513218896","3","0.4237737","-0.10295067","9.461885","stand up","1"
"14737533177392","3","0.4309563","-0.110133275","9.461885","stand up","1"
"14737553135888","3","0.4285621","-0.10534488","9.476251","stand up","1"
"14737573124902","3","0.4357447","-0.10534488","9.469068","stand up","1"
"14737593083398","3","0.44532153","-0.10295067","9.466674","stand up","1"
"14737613041894","3","0.4357447","-0.10055647","9.476251","stand up","1"
"14737633000390","3","0.4333505","-0.10055647","9.471462","stand up","1"
"14737652989404","3","0.4285621","-0.107739076","9.459491","stand up","1"
"14737672947900","3","0.4285621","-0.10295067","9.466674","stand up","1"
"14737692906396","3","0.4309563","-0.11731588","9.466674","stand up","1"
"14737712864892","3","0.4357447","-0.110133275","9.466674","stand up","1"
"14737732853906","3","0.4381389","-0.11252748","9.473856","stand up","1"
"14737752812402","3","0.4309563","-0.10534488","9.471462","stand up","1"
"14737772770898","3","0.4357447","-0.11252748","9.466674","stand up","1"
"14737792729394","3","0.4261679","-0.107739076","9.476251","stand up","1"
"14737812687890","3","0.4381389","-0.11252748","9.469068","stand up","1"
"14737832646386","3","0.4381389","-0.110133275","9.466674","stand up","1"
"14737852574365","3","0.4381389","-0.10295067","9.464279","stand up","1"
"14737872563378","3","0.4309563","-0.10055647","9.459491","stand up","1"
"14737892552392","3","0.4357447","-0.11731588","9.457097","stand up","1"
"14737912541406","3","0.4309563","-0.10295067","9.459491","stand up","1"
"14737932499902","3","0.4309563","-0.107739076","9.476251","stand up","1"
"14737952458398","3","0.4381389","-0.110133275","9.471462","stand up","1"
"14737972416894","3","0.44532153","-0.110133275","9.454702","stand up","1"
"14737992344872","3","0.4381389","-0.11492168","9.473856","stand up","1"
"14738012333886","3","0.4309563","-0.10295067","9.466674","stand up","1"
"14738032292382","3","0.4405331","-0.11492168","9.469068","stand up","1"
"14738052250878","3","0.4165911","-0.110133275","9.461885","stand up","1"
"14738072209374","3","0.44532153","-0.107739076","9.473856","stand up","1"
"14738092198388","3","0.4405331","-0.110133275","9.481039","stand up","1"
"14738112156884","3","0.4285621","-0.11731588","9.469068","stand up","1"
"14738132115380","3","0.4333505","-0.11252748","9.471462","stand up","1"
"14738152073876","3","0.4261679","-0.10295067","9.471462","stand up","1"
"14738172032372","3","0.4357447","-0.110133275","9.457097","stand up","1"
"14738191990868","3","0.4285621","-0.11731588","9.473856","stand up","1"
"14738211949365","3","0.4357447","-0.110133275","9.476251","stand up","1"
"14738231907861","3","0.4357447","-0.11252748","9.466674","stand up","1"
"14738251866357","3","0.4285621","-0.107739076","9.466674","stand up","1"
"14738271824853","3","0.4285621","-0.110133275","9.469068","stand up","1"
"14738291813866","3","0.4357447","-0.107739076","9.469068","stand up","1"
"14738311772363","3","0.4261679","-0.11971009","9.473856","stand up","1"
"14738331730859","3","0.4309563","-0.110133275","9.473856","stand up","1"
"14738351689355","3","0.4333505","-0.107739076","9.464279","stand up","1"
"14738371678368","3","0.4357447","-0.09816227","9.471462","stand up","1"
"14738391636865","3","0.4357447","-0.10534488","9.454702","stand up","1"
"14738411595361","3","0.4357447","-0.10534488","9.473856","stand up","1"
"14738431553857","3","0.44532153","-0.107739076","9.469068","stand up","1"
"14738451542870","3","0.4429273","-0.10055647","9.471462","stand up","1"
"14738471501366","3","0.4333505","-0.11492168","9.473856","stand up","1"
"14738491490380","3","0.4333505","-0.11252748","9.466674","stand up","1"
"14738511448876","3","0.4285621","-0.10534488","9.457097","stand up","1"
"14738531407372","3","0.4285621","-0.10534488","9.461885","stand up","1"
"14738551365868","3","0.4357447","-0.11492168","9.481039","stand up","1"
"14738571293847","3","0.4381389","-0.107739076","9.476251","stand up","1"
"14738591282861","3","0.4357447","-0.11492168","9.466674","stand up","1"
"14738611241357","3","0.4381389","-0.110133275","9.461885","stand up","1"
"14738631199853","3","0.4261679","-0.107739076","9.469068","stand up","1"
"14738651158349","3","0.4213795","-0.11492168","9.459491","stand up","1"
"14738671116845","3","0.4309563","-0.107739076","9.473856","stand up","1"
"14738691075341","3","0.4381389","-0.10534488","9.471462","stand up","1"
"14738711033837","3","0.4429273","-0.110133275","9.466674","stand up","1"
"14738730992333","3","0.4309563","-0.10534488","9.461885","stand up","1"
"14738750920312","3","0.4357447","-0.10295067","9.452309","stand up","1"
"14738770909325","3","0.4237737","-0.10295067","9.459491","stand up","1"
"14738790867822","3","0.4429273","-0.11492168","9.478644","stand up","1"
"14738810826318","3","0.4357447","-0.10295067","9.473856","stand up","1"
"14738830815331","3","0.4429273","-0.10534488","9.466674","stand up","1"
"14738850743310","3","0.4381389","-0.11492168","9.461885","stand up","1"
"14738870732324","3","0.44532153","-0.107739076","9.454702","stand up","1"
"14738890690820","3","0.4405331","-0.10055647","9.464279","stand up","1"
"14738910649316","3","0.4213795","-0.11252748","9.481039","stand up","1"
"14738930607812","3","0.4309563","-0.11252748","9.481039","stand up","1"
"14738950566308","3","0.4429273","-0.110133275","9.469068","stand up","1"
"14738970524804","3","0.4405331","-0.10534488","9.457097","stand up","1"
"14738990483300","3","0.4333505","-0.110133275","9.454702","stand up","1"
"14739010472314","3","0.4309563","-0.10295067","9.459491","stand up","1"
"14739030400292","3","0.44532153","-0.110133275","9.476251","stand up","1"
"14739050389306","3","0.4357447","-0.11252748","9.478644","stand up","1"
"14739070378320","3","0.4381389","-0.11252748","9.461885","stand up","1"
"14739090336816","3","0.4429273","-0.10534488","9.459491","stand up","1"
"14739130314843","3","0.4381389","-0.10534488","9.459491","stand up","1"
"14739150303857","3","0.4333505","-0.11252748","9.473856","none","2"
"14739170262353","3","0.4381389","-0.107739076","9.476251","none","2"
"14739190220849","3","0.4405331","-0.095768064","9.471462","none","2"
"14739210209863","3","0.4333505","-0.11252748","9.459491","none","2"
"14739230168359","3","0.4357447","-0.110133275","9.464279","none","2"
"14739250126855","3","0.4261679","-0.110133275","9.459491","none","2"
"14739270085351","3","0.4357447","-0.10295067","9.481039","none","2"
"14739290074365","3","0.4381389","-0.107739076","9.476251","none","2"
"14739310032861","3","0.4381389","-0.10534488","9.469068","none","2"
"14739329991357","3","0.4381389","-0.10534488","9.459491","none","2"
"14739349980370","3","0.4285621","-0.11492168","9.459491","none","2"
"14739369908349","3","0.4357447","-0.11492168","9.454702","none","2"
"14739389866845","3","0.4237737","-0.10295067","9.466674","none","2"
"14739409794824","3","0.4357447","-0.10295067","9.469068","none","2"
"14739429783837","3","0.4333505","-0.110133275","9.464279","none","2"
"14739449742333","3","0.4429273","-0.11731588","9.454702","none","2"
"14739469700829","3","0.4333505","-0.11731588","9.459491","none","2"
"14739489659325","3","0.4357447","-0.107739076","9.464279","none","2"
"14739509617822","3","0.4429273","-0.110133275","9.469068","none","2"
"14739529606835","3","0.4429273","-0.10295067","9.471462","none","2"
"14739549565331","3","0.4357447","-0.10534488","9.464279","none","2"
"14739569523827","3","0.4333505","-0.110133275","9.449914","none","2"
"14739589482324","3","0.4309563","-0.110133275","9.461885","none","2"
"14739609440820","3","0.4285621","-0.10295067","9.461885","none","2"
"14739629399316","3","0.4333505","-0.11492168","9.476251","none","2"
"14739649357812","3","0.4381389","-0.107739076","9.471462","none","2"
"14739669316308","3","0.4357447","-0.11252748","9.473856","none","2"
"14739689274804","3","0.4429273","-0.10534488","9.459491","none","2"
"14739709233300","3","0.4285621","-0.11252748","9.464279","none","2"
"14739729191796","3","0.4261679","-0.107739076","9.469068","none","2"
"14739749150292","3","0.4309563","-0.095768064","9.478644","none","2"
"14739769108788","3","0.4381389","-0.10295067","9.478644","none","2"
