"Timestamp","Accuracy","Acceleration X","Acceleration Y","Acceleration Z","Label","Cycle"
"13929037813554","3","-0.17238252","0.3184288","9.931149","none","0"
"13929057772050","3","-0.23463176","0.33039984","9.524135","none","1"
"13929077730546","3","-0.2777274","0.30166942","9.368511","none","1"
"13929097689042","3","-0.30166942","0.36631286","9.409213","none","1"
"13929117708573","3","-0.29688102","0.33997664","9.512163","none","1"
"13929137636552","3","-0.23463176","0.46447513","9.52174","none","1"
"13929157656083","3","-0.25857377","0.39983168","9.545682","none","1"
"13929177614579","3","-0.2705448","0.37349546","9.509769","none","1"
"13929197573075","3","-0.24660277","0.4165911","9.495404","none","1"
"13929217562089","3","-0.2633622","0.40462008","9.485827","none","1"
"13929237520585","3","-0.21308395","0.3854665","9.473856","none","1"
"13929257479081","3","-0.3184288","0.32561144","9.442732","none","1"
"13929277437577","3","-0.34715924","0.3184288","9.488221","none","1"
"13929297396073","3","-0.24660277","0.36152446","9.488221","none","1"
"13929317324052","3","-0.24660277","0.37828386","9.495404","none","1"
"13929337343583","3","-0.272939","0.37828386","9.500193","none","1"
"13929357302079","3","-0.2681506","0.37828386","9.473856","none","1"
"13929377260575","3","-0.2801216","0.38067806","9.469068","none","1"
"13929397219071","3","-0.2777274","0.36391866","9.471462","none","1"
"13929417177567","3","-0.2753332","0.37828386","9.471462","none","1"
"13929437136063","3","-0.2753332","0.37110126","9.466674","none","1"
"13929457094559","3","-0.2753332","0.37110126","9.476251","none","1"
"13929477053056","3","-0.260968","0.37828386","9.454702","none","1"
"13929497011552","3","-0.2681506","0.37588966","9.490616","none","1"
"13929516970048","3","-0.2705448","0.37349546","9.476251","none","1"
"13929536928544","3","-0.2681506","0.37349546","9.469068","none","1"
"13929556887040","3","-0.2753332","0.37110126","9.471462","none","1"
"13929576845536","3","-0.2657564","0.38067806","9.471462","none","1"
"13929596834550","3","-0.2681506","0.37828386","9.469068","none","1"
"13929616793046","3","-0.2681506","0.38307226","9.478644","none","1"
"13929636751542","3","-0.2801216","0.37349546","9.476251","none","1"
"13929656710038","3","-0.2753332","0.38067806","9.471462","none","1"
"13929676729569","3","-0.272939","0.36391866","9.483433","none","1"
"13929696657548","3","-0.2681506","0.37110126","9.473856","none","1"
"13929716616044","3","-0.2681506","0.38067806","9.476251","none","1"
"13929736605057","3","-0.2825158","0.38067806","9.473856","none","1"
"13929756563554","3","-0.2681506","0.37349546","9.473856","none","1"
"13929776522050","3","-0.272939","0.38067806","9.473856","none","1"
"13929796480546","3","-0.2705448","0.36870706","9.473856","none","1"
"13929816439042","3","-0.272939","0.37349546","9.485827","none","1"
"13929836428056","3","-0.2657564","0.36631286","9.481039","none","1"
"13929856386552","3","-0.2681506","0.36631286","9.471462","none","1"
"13929876345048","3","-0.2705448","0.39264908","9.469068","none","1"
"13929896303544","3","-0.2657564","0.36152446","9.466674","none","1"
"13929916231522","3","-0.2825158","0.37110126","9.469068","none","1"
"13929936220536","3","-0.25378537","0.37110126","9.473856","none","1"
"13929956179032","3","-0.2681506","0.38307226","9.478644","none","1"
"13929976168046","3","-0.2753332","0.37828386","9.478644","none","1"
"13929996126542","3","-0.2705448","0.38067806","9.476251","none","1"
"13930016115556","3","-0.2657564","0.38307226","9.471462","none","1"
"13930036104569","3","-0.272939","0.38307226","9.478644","none","1"
"13930056063065","3","-0.272939","0.37828386","9.473856","none","1"
"13930076021561","3","-0.2705448","0.36870706","9.481039","none","1"
"13930095980057","3","-0.2705448","0.37828386","9.476251","none","1"
"13930115969071","3","-0.2777274","0.38067806","9.461885","none","1"
"13930135958085","3","-0.2873042","0.38067806","9.469068","none","1"
"13930155916581","3","-0.2681506","0.37828386","9.481039","none","1"
"13930175875077","3","-0.2681506","0.36631286","9.481039","none","1"
"13930195833573","3","-0.272939","0.37588966","9.483433","none","1"
"13930215792069","3","-0.2681506","0.38307226","9.471462","none","1"
"13930235750565","3","-0.2753332","0.37828386","9.478644","none","1"
"13930255709061","3","-0.2825158","0.37349546","9.469068","none","1"
"13930275667557","3","-0.2801216","0.36870706","9.469068","none","1"
"13930295626054","3","-0.2753332","0.37588966","9.469068","none","1"
"13930315584550","3","-0.2705448","0.36870706","9.483433","none","1"
"13930335543046","3","-0.2681506","0.37588966","9.478644","none","1"
"13930355501542","3","-0.2705448","0.37588966","9.481039","none","1"
"13930375460038","3","-0.272939","0.37828386","9.473856","none","1"
"13930395418534","3","-0.28491","0.37349546","9.466674","none","1"
"13930415377030","3","-0.28491","0.37349546","9.473856","none","1"
"13930435335526","3","-0.272939","0.37349546","9.476251","none","1"
"13930455294022","3","-0.2657564","0.38067806","9.490616","none","1"
"13930475252518","3","-0.2633622","0.36631286","9.476251","none","1"
"13930495211014","3","-0.2801216","0.36631286","9.473856","none","1"
"13930515169511","3","-0.28491","0.37828386","9.464279","none","1"
"13930535128007","3","-0.2801216","0.37828386","9.473856","none","1"
"13930555086503","3","-0.2753332","0.38307226","9.478644","none","1"
"13930575044999","3","-0.25857377","0.37349546","9.481039","none","1"
"13930595003495","3","-0.25139117","0.37110126","9.481039","none","1"
"13930614961991","3","-0.2657564","0.38067806","9.481039","none","1"
"13930634951005","3","-0.28491","0.37349546","9.469068","none","1"
"13930654909501","3","-0.2896984","0.37828386","9.452309","none","1"
"13930674867997","3","-0.2825158","0.37110126","9.466674","none","1"
"13930694857011","3","-0.2705448","0.37588966","9.488221","none","1"
"13930714815507","3","-0.260968","0.37349546","9.49301","none","1"
"13930734774003","3","-0.2657564","0.37349546","9.490616","none","1"
"13930754732499","3","-0.2825158","0.37588966","9.476251","none","1"
"13930774690995","3","-0.2873042","0.37349546","9.461885","none","1"
"13930794680009","3","-0.2825158","0.37828386","9.469068","none","1"
"13930814638505","3","-0.2657564","0.37828386","9.481039","none","1"
"13930834597001","3","-0.260968","0.37110126","9.490616","none","1"
"13930854555497","3","-0.2681506","0.37349546","9.481039","none","1"
"13930874513993","3","-0.2753332","0.36631286","9.471462","none","1"
"13930894472489","3","-0.2801216","0.37588966","9.459491","none","1"
"13930914430985","3","-0.2801216","0.37828386","9.461885","none","1"
"13930934389481","3","-0.2825158","0.37110126","9.466674","none","1"
"13930954347977","3","-0.2633622","0.38067806","9.488221","none","1"
"13930974336991","3","-0.2657564","0.38067806","9.49301","none","1"
"13930994326005","3","-0.272939","0.37110126","9.483433","none","1"
"13931014284501","3","-0.2825158","0.36870706","9.471462","none","1"
"13931034242997","3","-0.2896984","0.37828386","9.457097","none","1"
"13931054201493","3","-0.2753332","0.36870706","9.466674","none","1"
"13931074159989","3","-0.2681506","0.36631286","9.478644","none","1"
"13931094118485","3","-0.2681506","0.37349546","9.488221","none","1"
"13931114076981","3","-0.2657564","0.38067806","9.478644","none","1"
"13931134035477","3","-0.2825158","0.36631286","9.471462","none","1"
"13931153993973","3","-0.2777274","0.36631286","9.469068","none","1"
"13931173952470","3","-0.2896984","0.37349546","9.483433","none","1"
"13931193910966","3","-0.272939","0.37349546","9.483433","none","1"
"13931213869462","3","-0.260968","0.36870706","9.49301","none","1"
"13931233827958","3","-0.2681506","0.37110126","9.485827","none","1"
"13931253786454","3","-0.272939","0.38067806","9.464279","none","1"
"13931273744950","3","-0.2777274","0.37349546","9.469068","none","1"
"13931293703446","3","-0.2777274","0.35913026","9.481039","none","1"
"13931313661942","3","-0.2681506","0.37349546","9.469068","none","1"
"13931333620438","3","-0.2801216","0.3854665","9.481039","none","1"
"13931353578934","3","-0.2681506","0.38067806","9.483433","none","1"
"13931373537431","3","-0.2753332","0.37828386","9.483433","none","1"
"13931393495927","3","-0.2801216","0.38067806","9.466674","none","1"
"13931413484940","3","-0.2825158","0.37349546","9.471462","none","1"
"13931433443436","3","-0.2801216","0.37110126","9.476251","none","1"
"13931453401932","3","-0.260968","0.36870706","9.483433","none","1"
"13931473360429","3","-0.260968","0.37588966","9.483433","none","1"
"13931493318925","3","-0.2705448","0.37588966","9.478644","none","1"
"13931513307938","3","-0.2753332","0.37828386","9.469068","none","1"
"13931533296952","3","-0.2896984","0.37349546","9.471462","none","1"
"13931553285966","3","-0.2633622","0.37349546","9.473856","none","1"
"13931573244462","3","-0.260968","0.36870706","9.485827","none","1"
"13931593202958","3","-0.272939","0.37588966","9.485827","none","1"
"13931613161454","3","-0.2777274","0.37828386","9.464279","none","1"
"13931633180985","3","-0.2825158","0.37828386","9.469068","none","1"
"13931653139481","3","-0.272939","0.37588966","9.464279","none","1"
"13931673097977","3","-0.2777274","0.36870706","9.476251","none","1"
"13931693056473","3","-0.2681506","0.37110126","9.471462","none","1"
"13931713014970","3","-0.272939","0.37349546","9.488221","none","1"
"13931732973466","3","-0.2753332","0.37828386","9.481039","none","1"
"13931752931962","3","-0.2753332","0.36870706","9.481039","none","1"
"13931772890458","3","-0.2873042","0.37588966","9.459491","none","1"
"13931792848954","3","-0.2801216","0.37349546","9.469068","none","1"
"13931812807450","3","-0.260968","0.37828386","9.473856","none","1"
"13931832765946","3","-0.25378537","0.37828386","9.478644","none","1"
"13931852724442","3","-0.2753332","0.37110126","9.476251","none","1"
"13931872682938","3","-0.2825158","0.37588966","9.466674","none","1"
"13931892641434","3","-0.2801216","0.37349546","9.466674","none","1"
"13931912599931","3","-0.2705448","0.37110126","9.459491","none","1"
"13931932558427","3","-0.2705448","0.36870706","9.476251","none","1"
"13931952516923","3","-0.2657564","0.36631286","9.485827","none","1"
"13931972475419","3","-0.2657564","0.37110126","9.49301","none","1"
"13931992433915","3","-0.272939","0.37828386","9.473856","none","1"
"13932012392411","3","-0.2777274","0.37110126","9.461885","none","1"
"13932032350907","3","-0.2753332","0.36870706","9.457097","none","1"
"13932052309403","3","-0.2705448","0.38307226","9.476251","none","1"
"13932072267899","3","-0.2633622","0.37349546","9.478644","none","1"
"13932092195878","3","-0.2657564","0.37828386","9.490616","none","1"
"13932112215409","3","-0.2705448","0.37110126","9.478644","none","1"
"13932132173905","3","-0.2777274","0.37110126","9.461885","none","1"
"13932152132401","3","-0.2753332","0.37588966","9.469068","none","1"
"13932172090897","3","-0.2681506","0.37828386","9.473856","none","1"
"13932192049393","3","-0.2657564","0.37349546","9.485827","none","1"
"13932212007889","3","-0.2681506","0.36631286","9.490616","none","1"
"13932231966386","3","-0.272939","0.37349546","9.481039","none","1"
"13932251955399","3","-0.2873042","0.37349546","9.464279","none","1"
"13932271944413","3","-0.2873042","0.37588966","9.459491","none","1"
"13932291902909","3","-0.2825158","0.37349546","9.469068","none","1"
"13932311861405","3","-0.2633622","0.37828386","9.502586","none","1"
"13932331819901","3","-0.2633622","0.37349546","9.497798","none","1"
"13932351778397","3","-0.2681506","0.36631286","9.485827","none","1"
"13932371736893","3","-0.2777274","0.37588966","9.466674","none","1"
"13932391695389","3","-0.2825158","0.37349546","9.457097","none","1"
"13932411653886","3","-0.2825158","0.36870706","9.469068","none","1"
"13932431612382","3","-0.2633622","0.37588966","9.476251","none","1"
"13932451570878","3","-0.2657564","0.37588966","9.49301","none","1"
"13932471529374","3","-0.2657564","0.37110126","9.490616","none","1"
"13932491487870","3","-0.2753332","0.38067806","9.473856","none","1"
"13932511446366","3","-0.2777274","0.36631286","9.454702","none","1"
"13932531404862","3","-0.2777274","0.37828386","9.464279","none","1"
"13932551363358","3","-0.2681506","0.37110126","9.478644","none","1"
"13932571321854","3","-0.25617957","0.38067806","9.488221","none","1"
"13932591310868","3","-0.2705448","0.37349546","9.488221","none","1"
"13932611269364","3","-0.2801216","0.36631286","9.485827","none","1"
"13932631227860","3","-0.2873042","0.36391866","9.461885","none","1"
"13932651186356","3","-0.2896984","0.38067806","9.461885","none","1"
"13932671144852","3","-0.2681506","0.37110126","9.469068","none","1"
"13932691103348","3","-0.25857377","0.37828386","9.485827","none","1"
"13932711061845","3","-0.272939","0.36152446","9.483433","none","1"
"13932731020341","3","-0.272939","0.36152446","9.476251","none","1"
"13932750978837","3","-0.29209262","0.36391866","9.454702","none","1"
"13932770937333","3","-0.2777274","0.37828386","9.459491","none","1"
"13932790865311","3","-0.2801216","0.38307226","9.478644","none","1"
"13932810854325","3","-0.2657564","0.37349546","9.481039","none","1"
"13932830782304","3","-0.25378537","0.36631286","9.481039","none","1"
"13932850801835","3","-0.2753332","0.36870706","9.478644","none","1"
"13932870790848","3","-0.2873042","0.37110126","9.481039","none","1"
"13932890749345","3","-0.2896984","0.3854665","9.461885","none","1"
"13932910707841","3","-0.2801216","0.37588966","9.473856","none","1"
"13932930666337","3","-0.2657564","0.37349546","9.481039","none","1"
"13932950624833","3","-0.25857377","0.37349546","9.49301","none","1"
"13932970583329","3","-0.2657564","0.37349546","9.483433","none","1"
"13932990541825","3","-0.2801216","0.36631286","9.478644","none","1"
"13933010530839","3","-0.2825158","0.36870706","9.454702","sit down","1"
"13933030519852","3","-0.2777274","0.38067806","9.473856","sit down","1"
"13933050447831","3","-0.2681506","0.37588966","9.485827","sit down","1"
"13933070436845","3","-0.25857377","0.37349546","9.49301","sit down","1"
"13933090395341","3","-0.272939","0.36870706","9.490616","sit down","1"
"13933110353837","3","-0.272939","0.37110126","9.471462","sit down","1"
"13933130312333","3","-0.2801216","0.37588966","9.466674","sit down","1"
"13933150270829","3","-0.2801216","0.37828386","9.469068","sit down","1"
"13933170229325","3","-0.2681506","0.36152446","9.466674","sit down","1"
"13933190187821","3","-0.2657564","0.37828386","9.485827","sit down","1"
"13933210146317","3","-0.260968","0.37588966","9.485827","sit down","1"
"13933230104813","3","-0.2753332","0.36631286","9.478644","sit down","1"
"13933250093827","3","-0.28491","0.37588966","9.461885","sit down","1"
"13933270052323","3","-0.2801216","0.37588966","9.469068","sit down","1"
"13933290010819","3","-0.2633622","0.38307226","9.481039","sit down","1"
"13933309969315","3","-0.2705448","0.37828386","9.490616","sit down","1"
"13933329927811","3","-0.2657564","0.36870706","9.478644","sit down","1"
"13933349886307","3","-0.2777274","0.37110126","9.478644","sit down","1"
"13933369844804","3","-0.2753332","0.36631286","9.466674","sit down","1"
"13933389803300","3","-0.2873042","0.37110126","9.469068","sit down","1"
"13933409761796","3","-0.2777274","0.37828386","9.476251","sit down","1"
"13933429720292","3","-0.272939","0.37349546","9.469068","sit down","1"
"13933449648270","3","-0.2705448","0.37349546","9.495404","sit down","1"
"13933469637284","3","-0.2681506","0.36870706","9.478644","sit down","1"
"13933489626298","3","-0.2657564","0.38067806","9.476251","sit down","1"
"13933509584794","3","-0.2801216","0.38307226","9.471462","sit down","1"
"13933529543290","3","-0.2825158","0.37349546","9.485827","sit down","1"
"13933549501786","3","-0.2777274","0.37828386","9.483433","sit down","1"
"13933569460282","3","-0.2705448","0.37588966","9.481039","sit down","1"
"13933589388261","3","-0.2633622","0.37588966","9.488221","sit down","1"
"13933609377274","3","-0.2753332","0.37828386","9.471462","sit down","1"
"13933629335770","3","-0.272939","0.36631286","9.473856","sit down","1"
"13933649294266","3","-0.2825158","0.37828386","9.466674","sit down","1"
"13933669252763","3","-0.2681506","0.37349546","9.478644","sit down","1"
"13933689211259","3","-0.2657564","0.36631286","9.49301","sit down","1"
"13933709169755","3","-0.260968","0.37110126","9.481039","sit down","1"
"13933729128251","3","-0.2705448","0.37349546","9.481039","sit down","1"
"13933749086747","3","-0.28491","0.36631286","9.473856","sit down","1"
"13933769045243","3","-0.2801216","0.3854665","9.461885","sit down","1"
"13933789003739","3","-0.272939","0.38307226","9.481039","sit down","1"
"13933808962235","3","-0.2681506","0.37828386","9.502586","sit down","1"
"13933828920731","3","-0.2657564","0.37110126","9.490616","sit down","1"
"13933848879227","3","-0.2825158","0.35673606","9.476251","sit down","1"
"13933868837723","3","-0.2873042","0.37110126","9.478644","sit down","1"
"13933888796220","3","-0.2753332","0.3854665","9.461885","sit down","1"
"13933908785233","3","-0.2705448","0.38067806","9.478644","sit down","1"
"13933928774247","3","-0.260968","0.37828386","9.49301","sit down","1"
"13933948732743","3","-0.2753332","0.37110126","9.49301","sit down","1"
"13933968691239","3","-0.2753332","0.37110126","9.483433","sit down","1"
"13933988649735","3","-0.2801216","0.38067806","9.469068","sit down","1"
"13934008608231","3","-0.2753332","0.37110126","9.461885","sit down","1"
"13934028566727","3","-0.260968","0.37828386","9.481039","sit down","1"
"13934048525223","3","-0.2753332","0.36870706","9.473856","sit down","1"
"13934068483720","3","-0.2681506","0.36631286","9.490616","sit down","1"
"13934088442216","3","-0.2705448","0.39025488","9.495404","sit down","1"
"13934108400712","3","-0.260968","0.37828386","9.469068","sit down","1"
"13934128359208","3","-0.2825158","0.40940848","9.543288","sit down","1"
"13934148317704","3","-0.23463176","0.36631286","9.461885","sit down","1"
"13934168276200","3","-0.25857377","0.37828386","9.483433","sit down","1"
"13934188234696","3","-0.21068975","0.4189853","9.536105","sit down","1"
"13934208193192","3","-0.2705448","0.51235914","9.5385","sit down","1"
"13934228151688","3","-0.30645782","0.22266077","9.248801","sit down","1"
"13934248110184","3","-0.18674773","0.38307226","9.801862","sit down","1"
"13934268068681","3","-0.2801216","0.31603462","9.421184","sit down","1"
"13934288027177","3","-0.34715924","0.33279404","9.397242","sit down","1"
"13934307985673","3","-0.36391866","0.37588966","9.3421755","sit down","1"
"13934327944169","3","-0.4309563","0.4285621","9.469068","sit down","1"
"13934347902665","3","-0.33279404","0.4189853","9.52174","sit down","1"
"13934367861161","3","-0.2657564","0.36391866","9.536105","sit down","1"
"13934387789139","3","-0.29209262","0.37828386","9.52174","sit down","1"
"13934407747636","3","-0.29688102","0.35673606","9.497798","sit down","1"
"13934427706132","3","-0.29927522","0.37349546","9.495404","sit down","1"
"13934447664628","3","0.16519992","0.44771573","9.461885","sit down","1"
"13934467623124","3","0.016759412","0.17956513","9.627085","sit down","1"
"13934487551102","3","-0.3184288","0.2681506","9.629479","sit down","1"
"13934507509598","3","-0.29927522","0.33518824","9.49301","sit down","1"
"13934527468095","3","-0.272939","0.38307226","9.41879","sit down","1"
"13934547426591","3","-0.22505496","0.4237737","9.387665","sit down","1"
"13934567385087","3","-0.25857377","0.4261679","9.397242","sit down","1"
"13934587313065","3","-0.2873042","0.4285621","9.414001","sit down","1"
"13934607302079","3","-0.2825158","0.40462008","9.423578","sit down","1"
"13934627260575","3","-0.2801216","0.39743748","9.433155","sit down","1"
"13934647249589","3","-0.2753332","0.39743748","9.459491","sit down","1"
"13934667208085","3","-0.2825158","0.38067806","9.485827","sit down","1"
"13934687166581","3","-0.2873042","0.37349546","9.490616","sit down","1"
"13934707125077","3","-0.2896984","0.37828386","9.488221","sit down","1"
"13934727083573","3","-0.29209262","0.39025488","9.481039","sit down","1"
"13934747072587","3","-0.28491","0.3878607","9.466674","sit down","1"
"13934767031083","3","-0.29448682","0.38067806","9.466674","sit down","1"
"13934786989579","3","-0.28491","0.38067806","9.466674","sit down","1"
"13934806948075","3","-0.2801216","0.35673606","9.507375","sit down","1"
"13934826906571","3","-0.24660277","0.48123455","9.473856","sit down","1"
"13934846865067","3","-0.320823","0.32321724","9.423578","sit down","1"
"13934866823563","3","-0.3184288","0.4429273","9.404425","sit down","1"
"13934886782059","3","-0.2825158","0.40940848","9.440337","sit down","1"
"13934906740556","3","-0.2873042","0.38307226","9.488221","sit down","1"
"13934926699052","3","-0.2681506","0.38307226","9.490616","sit down","1"
"13934946657548","3","-0.2681506","0.34955344","9.502586","sit down","1"
"13934966616044","3","-0.29448682","0.38067806","9.49301","sit down","1"
"13934986574540","3","-0.29448682","0.39025488","9.490616","sit down","1"
"13935006533036","3","-0.2801216","0.3878607","9.483433","sit down","1"
"13935026491532","3","-0.2777274","0.39264908","9.483433","sit down","1"
"13935046450028","3","-0.2777274","0.38067806","9.483433","sit down","1"
"13935066408524","3","-0.2825158","0.38307226","9.481039","sit down","1"
"13935086367020","3","-0.2801216","0.38307226","9.471462","sit down","1"
"13935106325516","3","-0.2801216","0.39264908","9.473856","sit down","1"
"13935126314530","3","-0.2825158","0.3878607","9.466674","sit down","1"
"13935146273026","3","-0.2801216","0.39025488","9.481039","sit down","1"
"13935166292557","3","-0.2753332","0.3854665","9.488221","sit down","1"
"13935186251054","3","-0.272939","0.37349546","9.478644","sit down","1"
"13935206209550","3","-0.28491","0.37828386","9.485827","sit down","1"
"13935226168046","3","-0.2753332","0.38307226","9.478644","sit down","1"
"13935246157059","3","-0.2825158","0.38067806","9.473856","sit down","1"
"13935266146073","3","-0.2801216","0.38307226","9.476251","sit down","1"
"13935286135087","3","-0.2777274","0.3854665","9.483433","sit down","1"
"13935306093583","3","-0.2825158","0.38067806","9.488221","sit down","1"
"13935326052079","3","-0.29448682","0.37588966","9.488221","sit down","1"
"13935346010575","3","-0.28491","0.39025488","9.488221","sit down","1"
"13935365938554","3","-0.2753332","0.39264908","9.478644","sit down","1"
"13935385927567","3","-0.2896984","0.39025488","9.469068","sit down","1"
"13935405886063","3","-0.272939","0.3878607","9.476251","sit down","1"
"13935425844559","3","-0.2777274","0.37110126","9.476251","sit down","1"
"13935445803056","3","-0.2896984","0.37828386","9.476251","sit down","1"
"13935465761552","3","-0.28491","0.3854665","9.476251","sit down","1"
"13935485720048","3","-0.2873042","0.3854665","9.466674","sit down","1"
"13935505678544","3","-0.2825158","0.39264908","9.466674","sit down","1"
"13935525637040","3","-0.29448682","0.38067806","9.481039","sit down","1"
"13935545595536","3","-0.2777274","0.39025488","9.490616","sit down","1"
"13935565554032","3","-0.2825158","0.38307226","9.478644","sit down","1"
"13935585512528","3","-0.2873042","0.37588966","9.478644","sit down","1"
"13935605471024","3","-0.2801216","0.39264908","9.473856","sit down","1"
"13935625429520","3","-0.2801216","0.39025488","9.481039","sit down","1"
"13935645388016","3","-0.2777274","0.38307226","9.473856","sit down","1"
"13935665346513","3","-0.2873042","0.37588966","9.485827","sit down","1"
"13935685305009","3","-0.2825158","0.37828386","9.483433","sit down","1"
"13935705294022","3","-0.28491","0.38307226","9.478644","sit down","1"
"13935725283036","3","-0.2896984","0.38307226","9.473856","sit down","1"
"13935745241532","3","-0.2825158","0.3878607","9.473856","sit down","1"
"13935765230546","3","-0.2825158","0.39264908","9.485827","sit down","1"
"13935785189042","3","-0.2753332","0.38307226","9.483433","sit down","1"
"13935805147538","3","-0.2873042","0.37828386","9.481039","sit down","1"
"13935825106034","3","-0.2873042","0.3878607","9.471462","sit down","1"
"13935845034013","3","-0.2825158","0.39025488","9.471462","sit down","1"
"13935865023026","3","-0.2873042","0.39025488","9.473856","sit down","1"
"13935885012040","3","-0.2873042","0.3878607","9.476251","sit down","1"
"13935905001054","3","-0.2873042","0.37588966","9.490616","sit down","1"
"13935924959550","3","-0.2801216","0.37588966","9.485827","sit down","1"
"13935944918046","3","-0.2825158","0.38307226","9.483433","sit down","1"
"13935964907059","3","-0.29209262","0.38307226","9.471462","sit down","1"
"13935984835038","3","-0.28491","0.3878607","9.469068","sit down","1"
"13936004824052","3","-0.2825158","0.3854665","9.471462","sit down","1"
"13936024782548","3","-0.272939","0.37828386","9.490616","sit down","1"
"13936044741044","3","-0.2777274","0.37828386","9.485827","sit down","1"
"13936064699540","3","-0.2825158","0.37828386","9.471462","sit down","1"
"13936084627518","3","-0.2896984","0.37588966","9.478644","sit down","1"
"13936104586014","3","-0.2873042","0.3854665","9.473856","sit down","1"
"13936124544511","3","-0.28491","0.3878607","9.473856","sit down","1"
"13936144503007","3","-0.2753332","0.38307226","9.473856","sit down","1"
"13936164461503","3","-0.2777274","0.38067806","9.495404","sit down","1"
"13936184419999","3","-0.28491","0.37349546","9.49301","sit down","1"
"13936204378495","3","-0.29209262","0.37828386","9.469068","sit down","1"
"13936224336991","3","-0.29448682","0.37828386","9.478644","sit down","1"
"13936244295487","3","-0.29209262","0.39504328","9.466674","sit down","1"
"13936264253983","3","-0.2777274","0.38307226","9.483433","sit down","1"
"13936284212479","3","-0.2657564","0.37110126","9.483433","sit down","1"
"13936304201493","3","-0.2801216","0.36870706","9.488221","sit down","1"
"13936324159989","3","-0.2873042","0.38067806","9.488221","sit down","1"
"13936344118485","3","-0.2896984","0.38307226","9.478644","sit down","1"
"13936364076981","3","-0.2825158","0.3878607","9.466674","sit down","1"
"13936384035477","3","-0.2873042","0.39025488","9.471462","sit down","1"
"13936403993973","3","-0.2681506","0.3854665","9.488221","sit down","1"
"13936423982987","3","-0.28491","0.37349546","9.495404","sit down","1"
"13936443972001","3","-0.2896984","0.37110126","9.478644","sit down","1"
"13936463899979","3","-0.29209262","0.39025488","9.466674","sit down","1"
"13936483888993","3","-0.28491","0.38307226","9.473856","sit down","1"
"13936503847489","3","-0.2801216","0.3854665","9.473856","sit down","1"
"13936523805985","3","-0.272939","0.38067806","9.488221","sit down","1"
"13936543764481","3","-0.2681506","0.37828386","9.495404","sit down","1"
"13936563692460","3","-0.2801216","0.3854665","9.478644","sit down","1"
"13936583681473","3","-0.2873042","0.39025488","9.478644","sit down","1"
"13936603639970","3","-0.2873042","0.38307226","9.461885","sit down","1"
"13936623598466","3","-0.2896984","0.3878607","9.478644","sit down","1"
"13936643556962","3","-0.2825158","0.37828386","9.490616","sit down","1"
"13936663545975","3","-0.2753332","0.38067806","9.488221","sit down","1"
"13936683504472","3","-0.2777274","0.38307226","9.481039","sit down","1"
"13936703462968","3","-0.2801216","0.3878607","9.481039","sit down","1"
"13936723421464","3","-0.29688102","0.39504328","9.464279","sit down","1"
"13936743379960","3","-0.28491","0.39504328","9.476251","sit down","1"
"13936763338456","3","-0.2753332","0.39264908","9.478644","sit down","1"
"13936783296952","3","-0.2753332","0.37828386","9.490616","sit down","1"
"13936803255448","3","-0.2681506","0.37588966","9.485827","sit down","1"
"13936823213944","3","-0.2777274","0.37828386","9.481039","sit down","1"
"13936843172440","3","-0.29209262","0.38067806","9.471462","sit down","1"
"13936863130936","3","-0.2896984","0.39025488","9.473856","sit down","1"
"13936883058915","3","-0.2753332","0.3854665","9.478644","sit down","1"
"13936903047929","3","-0.2777274","0.37828386","9.490616","sit down","1"
"13936923036942","3","-0.2777274","0.37588966","9.490616","sit down","1"
"13936943025956","3","-0.2801216","0.37588966","9.483433","sit down","1"
"13936963014970","3","-0.29927522","0.38067806","9.473856","sit down","1"
"13936982973466","3","-0.29927522","0.38067806","9.473856","sit down","1"
"13937002931962","3","-0.29209262","0.38307226","9.466674","lay down","1"
"13937022859940","3","-0.2753332","0.38067806","9.483433","lay down","1"
"13937042848954","3","-0.2801216","0.37588966","9.490616","lay down","1"
"13937062807450","3","-0.2753332","0.3854665","9.485827","lay down","1"
"13937082765946","3","-0.29688102","0.37349546","9.481039","lay down","1"
"13937102724442","3","-0.29688102","0.3878607","9.466674","lay down","1"
"13937122682938","3","-0.2896984","0.37828386","9.466674","lay down","1"
"13937142641434","3","-0.272939","0.37349546","9.478644","lay down","1"
"13937162599931","3","-0.2777274","0.38067806","9.497798","lay down","1"
"13937182558427","3","-0.2825158","0.37349546","9.490616","lay down","1"
"13937202516923","3","-0.28491","0.38067806","9.483433","lay down","1"
"13937222475419","3","-0.2873042","0.37349546","9.473856","lay down","1"
"13937242433915","3","-0.29448682","0.38067806","9.478644","lay down","1"
"13937262392411","3","-0.2825158","0.38067806","9.481039","lay down","1"
"13937282350907","3","-0.2777274","0.39025488","9.488221","lay down","1"
"13937302309403","3","-0.2801216","0.38067806","9.488221","lay down","1"
"13937322298417","3","-0.28491","0.37828386","9.471462","lay down","1"
"13937342287431","3","-0.29688102","0.37110126","9.466674","lay down","1"
"13937362245927","3","-0.28491","0.38067806","9.459491","lay down","1"
"13937382204423","3","-0.29448682","0.37110126","9.466674","lay down","1"
"13937402162919","3","-0.29448682","0.38307226","9.473856","lay down","1"
"13937422121415","3","-0.28491","0.37349546","9.476251","lay down","1"
"13937442079911","3","-0.29448682","0.4141969","9.471462","lay down","1"
"13937462038407","3","-0.29448682","0.3854665","9.481039","lay down","1"
"13937481996903","3","-0.2681506","0.3878607","9.488221","lay down","1"
"13937501955399","3","-0.272939","0.37349546","9.471462","lay down","1"
"13937521913895","3","-0.2753332","0.38067806","9.49301","lay down","1"
"13937541872391","3","-0.272939","0.38067806","9.476251","lay down","1"
"13937561830888","3","-0.2705448","0.37828386","9.485827","lay down","1"
"13937581758866","3","-0.2825158","0.37828386","9.461885","lay down","1"
"13937601747880","3","-0.2873042","0.37828386","9.478644","lay down","1"
"13937621706376","3","-0.2801216","0.38067806","9.476251","lay down","1"
"13937641664872","3","-0.272939","0.37828386","9.490616","lay down","1"
"13937661623368","3","-0.25617957","0.37349546","9.49301","lay down","1"
"13937681556927","3","-0.31124622","0.3854665","9.481039","lay down","1"
"13937701550966","3","-0.22744916","0.39504328","9.507375","lay down","1"
"13937721541273","3","-0.2896984","0.35913026","9.488221","lay down","1"
"13937741500158","3","-0.2896984","0.40462008","9.488221","lay down","1"
"13937761476884","3","-0.29448682","0.38067806","9.488221","lay down","1"
"13937781435380","3","-0.2873042","0.39025488","9.478644","lay down","1"
"13937801393876","3","-0.28491","0.4333505","9.473856","lay down","1"
"13937821352372","3","-0.272939","0.37588966","9.461885","lay down","1"
"13937841284927","3","-0.2873042","0.320823","9.459491","lay down","1"
"13937861298696","3","-0.29688102","0.37588966","9.490616","lay down","1"
"13937881258378","3","-0.30406362","0.36870706","9.483433","lay down","1"
"13937901216004","3","-0.30645782","0.37828386","9.507375","lay down","1"
"13937921169312","3","-0.2801216","0.36870706","9.473856","lay down","1"
"13937941133866","3","-0.23942018","0.37828386","9.476251","lay down","1"
"13937961092362","3","-0.37349546","0.34715924","9.397242","lay down","1"
"13937981050858","3","-0.19871874","0.32561144","9.485827","lay down","1"
"13938001009354","3","-0.33518824","0.36870706","9.634268","lay down","1"
"13938020962927","3","-0.25617957","0.34237084","9.406818","lay down","1"
"13938040908542","3","-0.30885202","0.45968673","9.509769","lay down","1"
"13938060867273","3","-0.2825158","0.7278373","9.390059","lay down","1"
"13938080843339","3","-0.21787235","0.39743748","9.394848","lay down","1"
"13938100801835","3","-0.28491","0.34237084","9.358934","lay down","1"
"13938120760331","3","-0.2633622","0.35913026","9.40203","lay down","1"
"13938140718827","3","-0.24660277","0.29209262","9.595961","lay down","1"
"13938160656427","3","-0.32561144","0.37828386","9.545682","lay down","1"
"13938180635819","3","-0.19871874","0.30406362","9.445126","lay down","1"
"13938200588696","3","-0.34237084","0.33758244","9.423578","lay down","1"
"13938220552811","3","-0.31124622","0.40462008","9.488221","lay down","1"
"13938240477465","3","0.088585466","0.4357447","9.607931","lay down","1"
"13938260469804","3","-0.6991069","0.4189853","9.421184","lay down","1"
"13938280428300","3","-0.4309563","0.34955344","9.28232","lay down","1"
"13938300386796","3","-0.2777274","0.4333505","9.308656","lay down","1"
"13938320345292","3","-0.35673606","0.41180268","9.531317","lay down","1"
"13938340303788","3","-0.25139117","0.4213795","9.591172","lay down","1"
"13938360262284","3","-0.23463176","0.38307226","9.636662","lay down","1"
"13938380181042","3","-0.34955344","0.32800564","9.545682","lay down","1"
"13938400179276","3","-0.39504328","0.18435353","9.481039","lay down","1"
"13938420137772","3","-0.33039984","0.37828386","9.461885","lay down","1"
"13938440096268","3","-0.2705448","0.50278234","9.433155","lay down","1"
"13938460054764","3","-0.29927522","0.34237084","9.445126","lay down","1"
"13938479982743","3","-0.25617957","0.37110126","9.504981","lay down","1"
"13938499971757","3","-0.30645782","0.19153613","9.495404","lay down","1"
"13938519960770","3","-0.30645782","0.5386954","9.404425","lay down","1"
"13938539919266","3","-0.33279404","0.3878607","9.500193","lay down","1"
"13938559908280","3","-0.272939","0.39504328","9.490616","lay down","1"
"13938579866776","3","-0.35194764","0.34955344","9.5385","lay down","1"
"13938599825272","3","-0.05746084","0.60333884","9.3733","lay down","1"
"13938619814286","3","-0.35194764","0.37349546","9.334992","lay down","1"
"13938639742264","3","-0.58657944","0.320823","9.358934","lay down","1"
"13938659724696","3","-0.33997664","0.2777274","9.334992","lay down","1"
"13938679689774","3","-0.36631286","0.1388637","9.349358","lay down","1"
"13938699678788","3","-0.34476504","0.23223756","9.507375","lay down","1"
"13938719651273","3","-1.1468226","-0.08140286","9.476251","lay down","1"
"13938739617119","3","-3.454833","-0.7302315","9.270349","lay down","1"
"13938759584794","3","-2.9879637","-0.34476504","9.751583","lay down","1"
"13938779543290","3","-4.8386817","0.5746084","9.916783","lay down","1"
"13938799467926","3","-5.722142","0.4189853","9.141062","lay down","1"
"13938819450003","3","-0.16998832","1.6519991","9.330204","lay down","1"
"13938839388619","3","5.5856724","0.878672","9.306262","lay down","1"
"13938859377274","3","5.6527104","1.2042835","9.121908","lay down","1"
"13938879331234","3","5.5162406","1.910573","9.358934","lay down","1"
"13938899262619","3","-1.8746599","-1.0821792","9.718064","lay down","1"
"13938919252763","3","-0.7517793","0.7445967","8.899248","lay down","1"
"13938939211259","3","0.074220255","0.35434186","10.149021","lay down","1"
"13938959137311","3","-0.50757074","0.40222588","9.028535","lay down","1"
"13938979128251","3","-0.39983168","0.50038815","9.457097","lay down","1"
"13938999086747","3","-0.51235914","0.4285621","9.428367","lay down","1"
"13939019045243","3","-0.39025488","0.47165772","9.483433","lay down","1"
"13939039003739","3","-0.39264908","0.39264908","9.423578","lay down","1"
"13939058988003","3","-0.4141969","0.34476504","9.464279","lay down","1"
"13939078981766","3","-0.44771573","0.45729253","9.488221","lay down","1"
"13939098940263","3","-0.32561144","0.44771573","9.440337","lay down","1"
"13939118858465","3","-0.4261679","0.34955344","9.531317","lay down","1"
"13939138857255","3","-0.20590134","0.5793968","9.461885","lay down","1"
"13939158811772","3","-0.23463176","0.47884035","9.476251","lay down","1"
"13939178768888","3","-0.31364042","0.36152446","9.485827","lay down","1"
"13939198715157","3","-0.30166942","0.36870706","9.466674","lay down","1"
"13939218721757","3","-0.35194764","0.35673606","9.473856","lay down","1"
"13939238663580","3","-0.35913026","0.4141969","9.490616","lay down","1"
"13939258638749","3","-0.34476504","0.3878607","9.478644","lay down","1"
"13939278546157","3","-0.31603462","0.4237737","9.497798","lay down","1"
"13939298545965","3","-0.32561144","0.4381389","9.495404","lay down","1"
"13939318544755","3","-0.31124622","0.41180268","9.488221","lay down","1"
"13939338533768","3","-0.3854665","0.59855044","9.490616","lay down","1"
"13939358445964","3","-0.3878607","0.31124622","9.43076","lay down","1"
"13939378420243","3","-0.31364042","0.40462008","9.409213","lay down","1"
"13939398378739","3","-0.46926352","0.59376204","9.25359","lay down","1"
"13939418337235","3","-0.34955344","0.7398083","9.603143","lay down","1"
"13939438295731","3","-0.58418524","0.8619126","9.124303","lay down","1"
"13939458284745","3","-0.05267244","0.51235914","9.488221","lay down","1"
"13939478243241","3","-0.44771573","0.51714754","9.660604","lay down","1"
"13939498178272","3","-0.21068975","0.33039984","9.655815","lay down","1"
"13939518160233","3","-0.40701428","0.47405192","9.533711","lay down","1"
"13939538149247","3","-0.33997664","0.48123455","9.49301","lay down","1"
"13939558079426","3","-0.32800564","0.40222588","9.528923","lay down","1"
"13939578066239","3","-0.34476504","0.49320555","9.502586","lay down","1"
"13939597988503","3","-0.29927522","0.4357447","9.507375","lay down","1"
"13939617983231","3","-0.32321724","0.44771573","9.471462","lay down","1"
"13939637941727","3","-0.30406362","0.40222588","9.473856","lay down","1"
"13939657927387","3","-0.320823","0.4309563","9.485827","lay down","1"
"13939677847041","3","-0.32561144","0.4237737","9.500193","lay down","1"
"13939697847733","3","-0.3184288","0.44771573","9.495404","lay down","1"
"13939717761926","3","-0.30885202","0.45010993","9.466674","lay down","1"
"13939737792349","3","-0.30885202","0.45729253","9.483433","lay down","1"
"13939757690810","3","-0.33039984","0.4333505","9.483433","lay down","1"
"13939777619849","3","-0.32800564","0.45489833","9.478644","lay down","1"
"13939797609696","3","-0.32800564","0.45729253","9.469068","lay down","1"
"13939817560272","3","-0.32321724","0.45250413","9.481039","lay down","1"
"13939837495310","3","-0.33518824","0.45010993","9.473856","lay down","1"
"13939857515702","3","-0.32321724","0.44771573","9.485827","lay down","1"
"13939877474198","3","-0.33039984","0.45250413","9.483433","lay down","1"
"13939897432694","3","-0.3184288","0.45489833","9.483433","lay down","1"
"13939917391190","3","-0.32321724","0.45968673","9.476251","lay down","1"
"13939937349686","3","-0.33039984","0.45489833","9.476251","lay down","1"
"13939957261695","3","-0.30645782","0.46447513","9.473856","lay down","1"
"13939977235003","3","-0.32321724","0.44771573","9.478644","lay down","1"
"13939997255692","3","-0.32561144","0.44771573","9.469068","lay down","1"
"13940017214188","3","-0.31124622","0.44532153","9.485827","lay down","1"
"13940037119118","3","-0.32800564","0.4429273","9.483433","lay down","1"
"13940057131181","3","-0.32321724","0.45489833","9.471462","lay down","1"
"13940077052887","3","-0.32321724","0.45010993","9.485827","lay down","1"
"13940097003810","3","-0.31364042","0.44532153","9.473856","lay down","1"
"13940116989079","3","-0.30406362","0.45489833","9.483433","lay down","1"
"13940137026200","3","-0.31603462","0.4333505","9.478644","lay down","1"
"13940156988349","3","-0.32561144","0.44532153","9.473856","lay down","1"
"13940176943192","3","-0.3184288","0.45489833","9.466674","lay down","1"
"13940196877541","3","-0.31603462","0.45729253","9.483433","lay down","1"
"13940216877502","3","-0.32321724","0.45729253","9.481039","lay down","1"
"13940236849198","3","-0.320823","0.44771573","9.488221","lay down","1"
"13940256743925","3","-0.31603462","0.45250413","9.488221","lay down","1"
"13940276766190","3","-0.31603462","0.45729253","9.476251","lay down","1"
"13940296669656","3","-0.3184288","0.4405331","9.471462","lay down","1"
"13940316683182","3","-0.33039984","0.45729253","9.466674","lay down","1"
"13940336672196","3","-0.32800564","0.45010993","9.488221","lay down","1"
"13940356630692","3","-0.3184288","0.45010993","9.483433","lay down","1"
"13940376619706","3","-0.3184288","0.4405331","9.481039","lay down","1"
"13940396509195","3","-0.320823","0.45489833","9.481039","lay down","1"
"13940416484695","3","-0.31603462","0.45489833","9.476251","lay down","1"
"13940436495194","3","-0.32800564","0.45489833","9.464279","lay down","1"
"13940456446694","3","-0.3184288","0.45489833","9.473856","lay down","1"
"13940476377156","3","-0.320823","0.44771573","9.490616","lay down","1"
"13940496401200","3","-0.31124622","0.4429273","9.483433","lay down","1"
"13940516359696","3","-0.3184288","0.45489833","9.485827","lay down","1"
"13940536318192","3","-0.320823","0.44532153","9.469068","lay down","1"
"13940556276688","3","-0.32321724","0.45250413","9.466674","lay down","1"
"13940576188310","3","-0.320823","0.45729253","9.473856","lay down","1"
"13940596159233","3","-0.30885202","0.45010993","9.488221","lay down","1"
"13940616137771","3","-0.30406362","0.44532153","9.490616","lay down","1"
"13940636052464","3","-0.31603462","0.4405331","9.481039","lay down","1"
"13940656038651","3","-0.3184288","0.45250413","9.471462","lay down","1"
"13940676058182","3","-0.320823","0.45489833","9.471462","lay down","1"
"13940696016679","3","-0.3184288","0.45250413","9.473856","lay down","1"
"13940715975175","3","-0.3184288","0.4405331","9.476251","lay down","1"
"13940735933671","3","-0.32800564","0.45489833","9.485827","lay down","1"
"13940755855233","3","-0.32561144","0.44532153","9.478644","lay down","1"
"13940775881181","3","-0.33039984","0.45010993","9.473856","lay down","1"
"13940795809159","3","-0.31124622","0.45968673","9.485827","lay down","1"
"13940815798173","3","-0.32321724","0.45489833","9.478644","lay down","1"
"13940835787186","3","-0.31124622","0.44771573","9.490616","lay down","1"
"13940855745682","3","-0.31603462","0.4405331","9.476251","lay down","1"
"13940875704179","3","-0.3184288","0.4429273","9.485827","lay down","1"
"13940895662675","3","-0.31124622","0.45010993","9.476251","lay down","1"
"13940915651688","3","-0.32561144","0.46447513","9.478644","lay down","1"
"13940935610184","3","-0.30645782","0.45489833","9.478644","lay down","1"
"13940955568681","3","-0.3184288","0.45250413","9.471462","lay down","1"
"13940975527177","3","-0.30885202","0.45010993","9.485827","lay down","1"
"13940995458002","3","-0.31603462","0.45010993","9.473856","lay down","1"
"13941015474686","3","-0.31603462","0.45489833","9.464279","roll side","1"
"13941035386502","3","-0.32561144","0.45729253","9.466674","roll side","1"
"13941055365463","3","-0.32321724","0.46208093","9.469068","roll side","1"
"13941075283309","3","-0.30645782","0.45250413","9.485827","roll side","1"
"13941095232809","3","-0.30885202","0.45010993","9.488221","roll side","1"
"13941115267167","3","-0.31124622","0.44771573","9.485827","roll side","1"
"13941135182348","3","-0.31603462","0.45489833","9.485827","roll side","1"
"13941155214677","3","-0.320823","0.45489833","9.476251","roll side","1"
"13941175142655","3","-0.320823","0.45489833","9.478644","roll side","1"
"13941195068079","3","-0.31364042","0.44532153","9.485827","roll side","1"
"13941215012348","3","-0.30166942","0.44532153","9.490616","roll side","1"
"13941235048661","3","-0.30406362","0.4405331","9.481039","roll side","1"
"13941254946809","3","-0.320823","0.4429273","9.476251","roll side","1"
"13941274965653","3","-0.32561144","0.45489833","9.481039","roll side","1"
"13941294882194","3","-0.320823","0.45250413","9.471462","roll side","1"
"13941314839617","3","-0.31124622","0.4429273","9.481039","roll side","1"
"13941334871659","3","-0.30645782","0.44771573","9.485827","roll side","1"
"13941354830155","3","-0.31364042","0.4357447","9.485827","roll side","1"
"13941374717963","3","-0.31364042","0.45489833","9.478644","roll side","1"
"13941394747147","3","-0.30885202","0.45250413","9.471462","roll side","1"
"13941414705643","3","-0.320823","0.45010993","9.478644","roll side","1"
"13941434694657","3","-0.31124622","0.45250413","9.478644","roll side","1"
"13941454653153","3","-0.30645782","0.45010993","9.483433","roll side","1"
"13941474540617","3","-0.31124622","0.44532153","9.485827","roll side","1"
"13941494545386","3","-0.30406362","0.44771573","9.488221","roll side","1"
"13941514528641","3","-0.3184288","0.45729253","9.478644","roll side","1"
"13941534487138","3","-0.3184288","0.46208093","9.478644","roll side","1"
"13941554433271","3","-0.31124622","0.45250413","9.49301","roll side","1"
"13941574434647","3","-0.320823","0.44532153","9.488221","roll side","1"
"13941594393143","3","-0.31364042","0.44532153","9.478644","roll side","1"
"13941614261924","3","-0.30166942","0.45010993","9.469068","roll side","1"
"13941634210155","3","-0.32561144","0.45729253","9.473856","roll side","1"
"13941654268632","3","-0.32321724","0.45010993","9.461885","roll side","1"
"13941674168194","3","-0.31603462","0.4381389","9.466674","roll side","1"
"13941694183271","3","-0.30885202","0.4429273","9.490616","roll side","1"
"13941714050117","3","-0.3184288","0.4261679","9.500193","roll side","1"
"13941733997809","3","-0.29927522","0.48841715","9.490616","roll side","1"
"13941753986963","3","-0.33039984","0.44771573","9.473856","roll side","1"
"13941773977847","3","-0.34955344","0.4261679","9.483433","roll side","1"
"13941793935578","3","-0.33518824","0.44771573","9.473856","roll side","1"
"13941813936600","3","-0.34237084","0.45250413","9.483433","roll side","1"
"13941833826732","3","-0.30166942","0.48602295","9.485827","roll side","1"
"13941853785963","3","-0.30406362","0.47884035","9.49301","roll side","1"
"13941873777424","3","-0.24660277","0.39264908","9.504981","roll side","1"
"13941893759463","3","-0.2705448","0.4189853","9.473856","roll side","1"
"13941913759598","3","-0.29927522","0.45010993","9.433155","roll side","1"
"13941933621193","3","-0.2753332","0.48123455","9.440337","roll side","1"
"13941953676591","3","-0.33997664","0.45729253","9.454702","roll side","1"
"13941973635087","3","-0.32800564","0.45968673","9.459491","roll side","1"
"13941993507424","3","-0.30885202","0.45968673","9.500193","roll side","1"
"13942013482924","3","-0.32321724","0.44771573","9.476251","roll side","1"
"13942033481232","3","-0.32321724","0.44532153","9.445126","roll side","1"
"13942053469071","3","-0.29927522","0.46208093","9.490616","roll side","1"
"13942073354463","3","-0.25378537","0.4237737","9.55047","roll side","1"
"13942093386063","3","-0.29448682","0.44771573","9.540894","roll side","1"
"13942113344559","3","-0.320823","0.5291186","9.497798","roll side","1"
"13942133257693","3","-0.3184288","0.4285621","9.461885","roll side","1"
"13942153205732","3","-0.35194764","0.45489833","9.504981","roll side","1"
"13942173281083","3","-0.3184288","0.46926352","9.464279","roll side","1"
"13942193166539","3","-0.32321724","0.4429273","9.440337","roll side","1"
"13942213228593","3","-0.36391866","0.45489833","9.483433","roll side","1"
"13942233187089","3","-0.3854665","0.40701428","9.473856","roll side","1"
"13942253115067","3","-0.37349546","0.4237737","9.483433","roll side","1"
"13942273104081","3","-0.38307226","0.40701428","9.502586","roll side","1"
"13942293032059","3","-0.34955344","0.4429273","9.437943","roll side","1"
"13942313021073","3","-0.35913026","0.4213795","9.404425","roll side","1"
"13942332889693","3","-0.31603462","0.4285621","9.44752","roll side","1"
"13942352843078","3","-0.35913026","0.4141969","9.44752","roll side","1"
"13942372896561","3","-0.35194764","0.4165911","9.442732","roll side","1"
"13942392824540","3","-0.35434186","0.4333505","9.481039","roll side","1"
"13942412813554","3","-0.39983168","0.36152446","9.497798","roll side","1"
"13942432685308","3","-0.39983168","0.39983168","9.509769","roll side","1"
"13942452761063","3","-0.40462008","0.41180268","9.476251","roll side","1"
"13942472719559","3","-0.2873042","0.47884035","9.564836","roll side","1"
"13942492618078","3","-0.09816227","0.5530606","9.28232","roll side","1"
"13942512617578","3","-0.40462008","0.6823475","9.646238","roll side","1"
"13942532625565","3","-0.37110126","0.58657944","9.8042555","roll side","1"
"13942552584061","3","-0.37828386","0.4261679","9.646238","roll side","1"
"13942572477116","3","-0.35434186","0.4429273","9.629479","roll side","1"
"13942592531571","3","-0.29448682","0.4285621","9.485827","roll side","1"
"13942612520585","3","-0.2896984","0.48123455","9.471462","roll side","1"
"13942632387193","3","-0.36152446","0.47405192","9.476251","roll side","1"
"13942652356078","3","-0.29448682","0.4261679","9.495404","roll side","1"
"13942672324001","3","-0.31364042","0.46447513","9.49301","roll side","1"
"13942692345654","3","-0.2825158","0.50996494","9.500193","roll side","1"
"13942712221808","3","-0.21547815","0.45010993","9.500193","roll side","1"
"13942732248501","3","-0.22984336","0.4261679","9.528923","roll side","1"
"13942752260575","3","-0.17238252","0.46926352","9.504981","roll side","1"
"13942772219071","3","-0.37349546","0.47644615","9.488221","roll side","1"
"13942792071924","3","-0.49320555","0.46686932","9.502586","roll side","1"
"13942812091808","3","-0.24181437","0.5770026","9.581595","roll side","1"
"13942832093347","3","-0.31364042","0.4309563","9.562442","roll side","1"
"13942851944847","3","-0.22505496","0.51235914","9.485827","roll side","1"
"13942872011552","3","-0.37828386","0.45729253","9.445126","roll side","1"
"13942891970048","3","-0.2705448","0.47405192","9.540894","roll side","1"
"13942911898026","3","-0.30406362","0.4405331","9.454702","roll side","1"
"13942931832731","3","-0.25139117","0.47884035","9.495404","roll side","1"
"13942951731808","3","-0.25617957","0.4333505","9.481039","roll side","1"
"13942971719116","3","-0.31603462","0.4141969","9.459491","roll side","1"
"13942991762528","3","-0.22744916","0.4405331","9.469068","roll side","1"
"13943011632039","3","-0.2873042","0.49320555","9.485827","roll side","1"
"13943031710038","3","-0.17717093","0.29688102","9.435549","roll side","1"
"13943051668534","3","-0.17477672","0.39743748","9.536105","roll side","1"
"13943071627030","3","-0.32321724","0.581791","9.483433","roll side","1"
"13943091569770","3","-0.32321724","0.47165772","9.507375","roll side","1"
"13943111465077","3","-0.2681506","0.4189853","9.55047","roll side","1"
"13943131448693","3","-0.31124622","0.4333505","9.507375","roll side","1"
"13943151365269","3","-0.35673606","0.45250413","9.476251","roll side","1"
"13943171334962","3","-0.33039984","0.41180268","9.452309","roll side","1"
"13943191378007","3","-0.39504328","0.5363012","9.380483","roll side","1"
"13943211367020","3","-0.31124622","0.36870706","9.569624","roll side","1"
"13943231214269","3","-0.25139117","0.47644615","9.509769","roll side","1"
"13943251228616","3","-0.2825158","0.46926352","9.461885","roll side","1"
"13943271200769","3","-0.25617957","0.5315128","9.457097","roll side","1"
"13943291201005","3","-0.3184288","0.50517654","9.473856","roll side","1"
"13943311167423","3","-0.3184288","0.45250413","9.461885","roll side","1"
"13943331141231","3","-0.33039984","0.49799395","9.457097","roll side","1"
"13943351000423","3","-0.3184288","0.48362875","9.488221","roll side","1"
"13943371065507","3","-0.34476504","0.51475334","9.504981","roll side","1"
"13943391024003","3","-0.25139117","0.5267244","9.495404","roll side","1"
"13943410957846","3","-0.31124622","0.45010993","9.509769","roll side","1"
"13943430913539","3","-0.29448682","0.49799395","9.457097","roll side","1"
"13943450841423","3","-0.36870706","0.5267244","9.44752","roll side","1"
"13943470857987","3","-0.19632454","0.46926352","9.619903","roll side","1"
"13943490847001","3","-0.22266077","0.31603462","9.576807","roll side","1"
"13943510771731","3","-0.37110126","0.5674258","9.495404","roll side","1"
"13943530763993","3","-0.25617957","0.35913026","9.41879","roll side","1"
"13943550679500","3","-0.22984336","0.46926352","9.433155","roll side","1"
"13943570680985","3","-0.24899697","0.45729253","9.382876","roll side","1"
"13943590548961","3","-0.18195933","0.47165772","9.459491","roll side","1"
"13943610602538","3","-0.16998832","0.36631286","9.572019","roll side","1"
"13943630582423","3","-0.45729253","0.35434186","9.330204","roll side","1"
"13943650545487","3","-0.5482722","0.6368576","9.682152","roll side","1"
"13943670503983","3","-0.08379706","0.21068975","9.67018","roll side","1"
"13943690447961","3","-0.44771573","0.50996494","9.500193","roll side","1"
"13943710326615","3","-0.22505496","0.39983168","9.509769","roll side","1"
"13943730296692","3","-0.31364042","0.51475334","9.399636","roll side","1"
"13943750307450","3","-0.20590134","0.47165772","9.43076","roll side","1"
"13943770296346","3","-0.2657564","0.48362875","9.483433","roll side","1"
"13943790170038","3","-0.2681506","0.45489833","9.497798","roll side","1"
"13943810157961","3","-0.2657564","0.47884035","9.440337","roll side","1"
"13943830191154","3","-0.24899697","0.46208093","9.471462","roll side","1"
"13943850118000","3","-0.29927522","0.5482722","9.488221","roll side","1"
"13943870102731","3","-0.29448682","0.59376204","9.428367","roll side","1"
"13943890062692","3","-0.22505496","0.50278234","9.385271","roll side","1"
"13943909999192","3","-0.29688102","0.45729253","9.469068","roll side","1"
"13943930025468","3","-0.29688102","0.45010993","9.514558","roll side","1"
"13943949997384","3","-0.24899697","0.38067806","9.44752","roll side","1"
"13943969972977","3","-0.23223756","0.45968673","9.378088","roll side","1"
"13943989931473","3","-0.36631286","0.37828386","9.478644","roll side","1"
"13944009763653","3","-0.23942018","0.5410896","9.514558","roll side","1"
"13944029848466","3","-0.31124622","0.45729253","9.514558","roll side","1"
"13944049717577","3","-0.2657564","0.47884035","9.514558","roll side","1"
"13944069665346","3","-0.2753332","0.44771573","9.528923","roll side","1"
"13944089736346","3","-0.2896984","0.46447513","9.49301","roll side","1"
"13944109614346","3","-0.2896984","0.49320555","9.478644","roll side","1"
"13944129555423","3","-0.29927522","0.47644615","9.476251","roll side","1"
"13944149513461","3","-0.30645782","0.48602295","9.488221","roll side","1"
"13944169557938","3","-0.31364042","0.46926352","9.481039","roll side","1"
"13944189508884","3","-0.2873042","0.48362875","9.476251","roll side","1"
"13944209505448","3","-0.2825158","0.45968673","9.476251","roll side","1"
"13944229364653","3","-0.29688102","0.46926352","9.490616","roll side","1"
"13944249291153","3","-0.29209262","0.46926352","9.481039","roll side","1"
"13944269354730","3","-0.30406362","0.46447513","9.476251","roll side","1"
"13944289339432","3","-0.2896984","0.47644615","9.478644","roll side","1"
"13944309267411","3","-0.2873042","0.46447513","9.490616","roll side","1"
"13944329256425","3","-0.29209262","0.47165772","9.49301","roll side","1"
"13944349214921","3","-0.2753332","0.47165772","9.502586","roll side","1"
"13944369203934","3","-0.2896984","0.46686932","9.481039","roll side","1"
"13944389162431","3","-0.28491","0.45729253","9.457097","roll side","1"
"13944409120927","3","-0.28491","0.46686932","9.473856","roll side","1"
"13944428979961","3","-0.2873042","0.46926352","9.469068","roll side","1"
"13944448925692","3","-0.2825158","0.47884035","9.488221","roll side","1"
"13944468996415","3","-0.2825158","0.46686932","9.49301","roll side","1"
"13944488863999","3","-0.2873042","0.48362875","9.495404","roll side","1"
"13944508943925","3","-0.29448682","0.48362875","9.466674","roll side","1"
"13944528821461","3","-0.29927522","0.48362875","9.457097","roll side","1"
"13944548723576","3","-0.28491","0.47644615","9.485827","roll side","1"
"13944568681307","3","-0.2753332","0.47405192","9.490616","roll side","1"
"13944588777909","3","-0.30166942","0.47405192","9.495404","roll side","1"
"13944608736405","3","-0.28491","0.46926352","9.488221","roll side","1"
"13944628580768","3","-0.28491","0.48123455","9.476251","roll side","1"
"13944648516076","3","-0.29927522","0.47405192","9.478644","roll side","1"
"13944668536345","3","-0.29927522","0.47405192","9.476251","roll side","1"
"13944688570389","3","-0.29448682","0.47884035","9.466674","roll side","1"
"13944708423961","3","-0.2777274","0.46926352","9.488221","roll side","1"
"13944728355653","3","-0.2777274","0.46926352","9.495404","roll side","1"
"13944748323691","3","-0.2873042","0.46686932","9.481039","roll side","1"
"13944768409538","3","-0.29209262","0.47644615","9.478644","roll side","1"
"13944788319614","3","-0.2896984","0.48841715","9.481039","roll side","1"
"13944808231076","3","-0.28491","0.47165772","9.466674","roll side","1"
"13944828310380","3","-0.2801216","0.47165772","9.500193","roll side","1"
"13944848268876","3","-0.2896984","0.47405192","9.495404","roll side","1"
"13944868251961","3","-0.2873042","0.46686932","9.485827","roll side","1"
"13944888212807","3","-0.2801216","0.48841715","9.478644","roll side","1"
"13944908182345","3","-0.29688102","0.48123455","9.478644","roll side","1"
"13944928163895","3","-0.29927522","0.46686932","9.481039","roll side","1"
"13944948082730","3","-0.2873042","0.47884035","9.471462","roll side","1"
"13944968074807","3","-0.2825158","0.47405192","9.481039","roll side","1"
"13944988039384","3","-0.2753332","0.46686932","9.485827","roll side","1"
"13945007866653","3","-0.2896984","0.47165772","9.473856","roll back","1"
"13945027830345","3","-0.29688102","0.47884035","9.473856","roll back","1"
"13945047914872","3","-0.28491","0.48123455","9.481039","roll back","1"
"13945067724576","3","-0.2801216","0.46686932","9.476251","roll back","1"
"13945087831864","3","-0.2801216","0.46447513","9.490616","roll back","1"
"13945107734230","3","-0.29448682","0.46926352","9.488221","roll back","1"
"13945127621422","3","-0.2873042","0.48362875","9.488221","roll back","1"
"13945147737383","3","-0.2801216","0.48123455","9.476251","roll back","1"
"13945167606922","3","-0.29209262","0.48123455","9.466674","roll back","1"
"13945187487883","3","-0.2753332","0.46686932","9.473856","roll back","1"
"13945207470883","3","-0.2825158","0.47644615","9.485827","roll back","1"
"13945227451883","3","-0.2873042","0.47644615","9.495404","roll back","1"
"13945247503191","3","-0.2801216","0.47644615","9.481039","roll back","1"
"13945267430230","3","-0.2896984","0.46926352","9.459491","roll back","1"
"13945287491460","3","-0.2896984","0.47644615","9.471462","roll back","1"
"13945307305268","3","-0.28491","0.47884035","9.490616","roll back","1"
"13945327425370","3","-0.2896984","0.47165772","9.485827","roll back","1"
"13945347370268","3","-0.28491","0.47884035","9.49301","roll back","1"
"13945367338383","3","-0.30406362","0.47884035","9.488221","roll back","1"
"13945387157383","3","-0.30406362","0.48123455","9.471462","roll back","1"
"13945407210806","3","-0.29209262","0.48362875","9.473856","roll back","1"
"13945427163576","3","-0.29927522","0.48362875","9.485827","roll back","1"
"13945447151383","3","-0.2825158","0.47405192","9.485827","roll back","1"
"13945467023922","3","-0.272939","0.48123455","9.507375","roll back","1"
"13945487123856","3","-0.272939","0.46686932","9.533711","roll back","1"
"13945507082352","3","-0.30885202","0.47405192","9.461885","roll back","1"
"13945527040848","3","-0.29448682","0.47884035","9.490616","roll back","1"
"13945546879499","3","-0.2681506","0.48602295","9.502586","roll back","1"
"13945566830345","3","-0.23702596","0.46208093","9.478644","roll back","1"
"13945586869806","3","-0.2657564","0.46686932","9.43076","roll back","1"
"13945606874833","3","-0.2825158","0.4141969","9.440337","roll back","1"
"13945626825998","3","-0.272939","0.41180268","9.40203","roll back","1"
"13945646822343","3","-0.31124622","0.4261679","9.459491","roll back","1"
"13945666640075","3","-0.22505496","0.4405331","9.41879","roll back","1"
"13945686714306","3","-0.17477672","0.6488287","9.495404","roll back","1"
"13945706664075","3","-0.24660277","0.5674258","9.552865","roll back","1"
"13945726656327","3","-0.36391866","0.5746084","9.485827","roll back","1"
"13945746645341","3","-0.17238252","0.557849","9.56723","roll back","1"
"13945766443498","3","-0.2896984","0.5626374","9.548077","roll back","1"
"13945786412614","3","-0.20350714","0.50038815","9.500193","roll back","1"
"13945806421575","3","-0.24420857","0.5674258","9.500193","roll back","1"
"13945826324768","3","-0.272939","0.45729253","9.449914","roll back","1"
"13945846437821","3","-0.21787235","0.45729253","9.531317","roll back","1"
"13945866382075","3","-0.24181437","0.60812724","9.583989","roll back","1"
"13945886217037","3","-0.14844051","0.320823","9.562442","roll back","1"
"13945906270114","3","-0.2801216","0.50517654","9.440337","roll back","1"
"13945926256075","3","-0.1364695","0.62249243","9.52174","roll back","1"
"13945946273267","3","-0.2777274","0.46447513","9.466674","roll back","1"
"13945966249833","3","-0.2753332","0.45250413","9.476251","roll back","1"
"13945986063883","3","-0.25378537","0.45010993","9.461885","roll back","1"
"13946006111267","3","-0.32561144","0.4429273","9.416395","roll back","1"
"13946025983614","3","-0.35434186","0.39743748","9.478644","roll back","1"
"13946046059229","3","-0.25857377","0.2753332","9.442732","roll back","1"
"13946066007767","3","-0.37110126","0.7350199","9.464279","roll back","1"
"13946085861306","3","-0.22505496","0.6560113","9.763555","roll back","1"
"13946105856767","3","-0.23702596","0.4165911","9.56723","roll back","1"
"13946125917802","3","-0.30166942","0.51235914","9.390059","roll back","1"
"13946145792075","3","-0.40222588","0.41180268","9.445126","roll back","1"
"13946165673921","3","-0.16280572","0.48602295","9.624691","roll back","1"
"13946185657152","3","-0.4141969","0.5482722","9.392453","roll back","1"
"13946205656690","3","-0.40940848","0.58897364","9.636662","roll back","1"
"13946225552344","3","-0.21308395","0.60333884","9.406818","roll back","1"
"13946245642806","3","-0.3184288","0.44532153","9.44752","roll back","1"
"13946265461498","3","-0.31603462","0.50038815","9.579201","roll back","1"
"13946285480267","3","-0.18674773","0.51954174","9.526528","roll back","1"
"13946305544266","3","-0.29448682","0.44771573","9.509769","roll back","1"
"13946325389729","3","-0.2873042","0.4141969","9.543288","roll back","1"
"13946345469152","3","-0.23942018","0.40940848","9.509769","roll back","1"
"13946365322652","3","-0.2777274","0.44771573","9.454702","roll back","1"
"13946385273767","3","-0.2705448","0.45010993","9.469068","roll back","1"
"13946405247267","3","-0.23702596","0.45729253","9.471462","roll back","1"
"13946425168536","3","-0.2873042","0.50278234","9.461885","roll back","1"
"13946445284257","3","-0.23463176","0.45010993","9.495404","roll back","1"
"13946465115729","3","-0.2825158","0.46208093","9.52174","roll back","1"
"13946485201249","3","-0.29209262","0.45010993","9.449914","roll back","1"
"13946505102921","3","-0.37349546","0.34955344","9.449914","roll back","1"
"13946524968690","3","-0.34715924","0.4333505","9.476251","roll back","1"
"13946544995613","3","-0.35194764","0.4261679","9.495404","roll back","1"
"13946565058959","3","-0.32321724","0.4213795","9.490616","roll back","1"
"13946584870921","3","-0.34955344","0.4213795","9.502586","roll back","1"
"13946604982743","3","-0.33518824","0.4357447","9.445126","roll back","1"
"13946624832498","3","-0.2801216","0.3878607","9.473856","roll back","1"
"13946644903882","3","-0.31603462","0.37828386","9.473856","roll back","1"
"13946664714536","3","-0.29209262","0.3854665","9.423578","roll back","1"
"13946684706190","3","-0.35194764","0.41180268","9.397242","roll back","1"
"13946704647113","3","-0.29448682","0.46447513","9.502586","roll back","1"
"13946724764237","3","-0.47644615","0.48841715","9.260772","roll back","1"
"13946744685498","3","-0.30645782","0.2801216","9.660604","roll back","1"
"13946764681229","3","-0.22744916","0.79008657","9.423578","roll back","1"
"13946784639725","3","-0.45250413","0.5506664","9.284714","roll back","1"
"13946804498344","3","-0.48362875","0.48602295","9.351752","roll back","1"
"13946824556718","3","-0.41180268","0.3878607","9.68694","roll back","1"
"13946844384382","3","-0.3184288","0.38067806","9.600749","roll back","1"
"13946864475959","3","-0.3184288","0.4285621","9.52174","roll back","1"
"13946884462723","3","-0.30406362","0.45010993","9.461885","roll back","1"
"13946904318459","3","-0.320823","0.45489833","9.473856","roll back","1"
"13946924285151","3","-0.29448682","0.45489833","9.485827","roll back","1"
"13946944337613","3","-0.25139117","0.4261679","9.476251","roll back","1"
"13946964168998","3","-0.30645782","0.40940848","9.466674","roll back","1"
"13946984134574","3","-0.30885202","0.4285621","9.500193","roll back","1"
"13947004097305","3","-0.30885202","0.48362875","9.497798","roll back","1"
"13947024202714","3","-0.2873042","0.44771573","9.502586","roll back","1"
"13947044029113","3","-0.2801216","0.45489833","9.507375","roll back","1"
"13947064026997","3","-0.3184288","0.45010993","9.548077","roll back","1"
"13947084139237","3","-0.3184288","0.46208093","9.519346","roll back","1"
"13947103941420","3","-0.31603462","0.45729253","9.509769","roll back","1"
"13947123945228","3","-0.31364042","0.45729253","9.483433","roll back","1"
"13947143956536","3","-0.30166942","0.45250413","9.483433","roll back","1"
"13947163864805","3","-0.29688102","0.47165772","9.485827","roll back","1"
"13947183992753","3","-0.31364042","0.46447513","9.478644","roll back","1"
"13947203780651","3","-0.30406362","0.47165772","9.469068","roll back","1"
"13947223909745","3","-0.30406362","0.47405192","9.476251","roll back","1"
"13947243737536","3","-0.29927522","0.46208093","9.485827","roll back","1"
"13947263665882","3","-0.29688102","0.45489833","9.478644","roll back","1"
"13947283666536","3","-0.29688102","0.45729253","9.471462","roll back","1"
"13947303716074","3","-0.29688102","0.47884035","9.473856","roll back","1"
"13947323566959","3","-0.30406362","0.47884035","9.473856","roll back","1"
"13947343629228","3","-0.29688102","0.47644615","9.488221","roll back","1"
"13947363503190","3","-0.31124622","0.46447513","9.495404","roll back","1"
"13947383585305","3","-0.29688102","0.45489833","9.49301","roll back","1"
"13947403445997","3","-0.29927522","0.45489833","9.469068","roll back","1"
"13947423555741","3","-0.2896984","0.45489833","9.481039","roll back","1"
"13947443333536","3","-0.272939","0.45010993","9.485827","roll back","1"
"13947463389343","3","-0.2873042","0.4381389","9.488221","roll back","1"
"13947483431229","3","-0.29448682","0.44771573","9.500193","roll back","1"
"13947503356420","3","-0.29927522","0.45729253","9.495404","roll back","1"
"13947523186882","3","-0.29448682","0.45010993","9.481039","roll back","1"
"13947543306718","3","-0.30645782","0.45489833","9.490616","roll back","1"
"13947563193189","3","-0.2825158","0.46208093","9.497798","roll back","1"
"13947583176189","3","-0.29448682","0.45968673","9.497798","roll back","1"
"13947603182206","3","-0.30166942","0.46208093","9.495404","roll back","1"
"13947623140702","3","-0.29927522","0.45489833","9.502586","roll back","1"
"13947642968305","3","-0.29448682","0.45968673","9.476251","roll back","1"
"13947663057694","3","-0.2896984","0.45729253","9.469068","roll back","1"
"13947683016190","3","-0.30406362","0.46447513","9.476251","roll back","1"
"13947702835766","3","-0.30406362","0.46686932","9.469068","roll back","1"
"13947722963700","3","-0.29209262","0.45729253","9.473856","roll back","1"
"13947742891679","3","-0.29927522","0.45968673","9.485827","roll back","1"
"13947762880692","3","-0.29209262","0.46926352","9.488221","roll back","1"
"13947782869706","3","-0.29448682","0.45489833","9.485827","roll back","1"
"13947802828202","3","-0.29927522","0.45489833","9.478644","roll back","1"
"13947822612151","3","-0.2896984","0.44771573","9.466674","roll back","1"
"13947842745194","3","-0.2873042","0.45010993","9.485827","roll back","1"
"13947862594228","3","-0.29448682","0.45010993","9.49301","roll back","1"
"13947882662186","3","-0.2873042","0.45489833","9.488221","roll back","1"
"13947902651200","3","-0.2873042","0.45250413","9.481039","roll back","1"
"13947922609696","3","-0.28491","0.45729253","9.490616","roll back","1"
"13947942536612","3","-0.29688102","0.47165772","9.483433","roll back","1"
"13947962392535","3","-0.30406362","0.46447513","9.483433","roll back","1"
"13947982515702","3","-0.29927522","0.45729253","9.488221","roll back","1"
"13948002474198","3","-0.29448682","0.45250413","9.490616","roll back","1"
"13948022432694","3","-0.29688102","0.46447513","9.488221","roll back","1"
"13948042234266","3","-0.2873042","0.46686932","9.49301","roll back","1"
"13948062150958","3","-0.29927522","0.45729253","9.473856","roll back","1"
"13948082199420","3","-0.29209262","0.46926352","9.478644","roll back","1"
"13948102195074","3","-0.29927522","0.45968673","9.488221","roll back","1"
"13948122100651","3","-0.29209262","0.45729253","9.49301","roll back","1"
"13948142022804","3","-0.29448682","0.45010993","9.490616","roll back","1"
"13948162004189","3","-0.29688102","0.46926352","9.49301","roll back","1"
"13948181996458","3","-0.30885202","0.45729253","9.471462","roll back","1"
"13948201943766","3","-0.29927522","0.45968673","9.49301","roll back","1"
"13948221986689","3","-0.30406362","0.44771573","9.478644","roll back","1"
"13948241827920","3","-0.29688102","0.45010993","9.483433","roll back","1"
"13948261774112","3","-0.2896984","0.44771573","9.488221","roll back","1"
"13948281893143","3","-0.29927522","0.46686932","9.488221","roll back","1"
"13948301687535","3","-0.30166942","0.45968673","9.473856","roll back","1"
"13948321694035","3","-0.2896984","0.44771573","9.478644","roll back","1"
"13948341633420","3","-0.2873042","0.46447513","9.478644","roll back","1"
"13948361587804","3","-0.29688102","0.46208093","9.481039","roll back","1"
"13948381493920","3","-0.29448682","0.44771573","9.495404","roll back","1"
"13948401481266","3","-0.2873042","0.46208093","9.483433","roll back","1"
"13948421459189","3","-0.29448682","0.46208093","9.478644","roll back","1"
"13948441431420","3","-0.2896984","0.46208093","9.481039","roll back","1"
"13948461493650","3","-0.29209262","0.46208093","9.485827","roll back","1"
"13948481353150","3","-0.29927522","0.45489833","9.49301","roll back","1"
"13948501334073","3","-0.29209262","0.45250413","9.497798","roll back","1"
"13948521318073","3","-0.2896984","0.46208093","9.488221","roll back","1"
"13948541384110","3","-0.30166942","0.45968673","9.473856","roll back","1"
"13948561197381","3","-0.29927522","0.46686932","9.478644","roll back","1"
"13948581362138","3","-0.29688102","0.46208093","9.485827","roll back","1"
"13948601206150","3","-0.29448682","0.45968673","9.497798","roll back","1"
"13948621236073","3","-0.29688102","0.45968673","9.495404","roll back","1"
"13948641065689","3","-0.29688102","0.46208093","9.495404","roll back","1"
"13948661173919","3","-0.29448682","0.46926352","9.485827","roll back","1"
"13948680997689","3","-0.29688102","0.46447513","9.461885","roll back","1"
"13948700941458","3","-0.29688102","0.46208093","9.478644","roll back","1"
"13948721071610","3","-0.30406362","0.45489833","9.478644","roll back","1"
"13948740883919","3","-0.29209262","0.45250413","9.485827","roll back","1"
"13948760808496","3","-0.2896984","0.45010993","9.49301","roll back","1"
"13948780784958","3","-0.2896984","0.44771573","9.485827","roll back","1"
"13948800887804","3","-0.29688102","0.45729253","9.473856","roll back","1"
"13948820687227","3","-0.2873042","0.45489833","9.476251","roll back","1"
"13948840691342","3","-0.29448682","0.45250413","9.485827","roll back","1"
"13948860609842","3","-0.29927522","0.46208093","9.500193","roll back","1"
"13948880562265","3","-0.29209262","0.45729253","9.49301","roll back","1"
"13948900643381","3","-0.2896984","0.45968673","9.490616","roll back","1"
"13948920507112","3","-0.29688102","0.46208093","9.469068","roll back","1"
"13948940456381","3","-0.29448682","0.45250413","9.469068","roll back","1"
"13948960508381","3","-0.29448682","0.46208093","9.483433","roll back","1"
"13948980546958","3","-0.30166942","0.45489833","9.49301","roll back","1"
"13949000416419","3","-0.29927522","0.45250413","9.466674","agitation","1"
"13949020327111","3","-0.2825158","0.4429273","9.481039","agitation","1"
"13949040276073","3","-0.2896984","0.47165772","9.485827","agitation","1"
"13949060418265","3","-0.29448682","0.46208093","9.478644","agitation","1"
"13949080385458","3","-0.29448682","0.44532153","9.478644","agitation","1"
"13949100333996","3","-0.29209262","0.45729253","9.481039","agitation","1"
"13949120165111","3","-0.29448682","0.45729253","9.485827","agitation","1"
"13949140098804","3","-0.29209262","0.46686932","9.473856","agitation","1"
"13949160122688","3","-0.2896984","0.45489833","9.490616","agitation","1"
"13949180205727","3","-0.2801216","0.46447513","9.478644","agitation","1"
"13949200103534","3","-0.30885202","0.46208093","9.483433","agitation","1"
"13949219990996","3","-0.2873042","0.45729253","9.481039","agitation","1"
"13949240114579","3","-0.29448682","0.45489833","9.488221","agitation","1"
"13949260073075","3","-0.30406362","0.45729253","9.490616","agitation","1"
"13949279866957","3","-0.29209262","0.46208093","9.490616","agitation","1"
"13949299778496","3","-0.29209262","0.46686932","9.488221","agitation","1"
"13949319777534","3","-0.29688102","0.45729253","9.488221","agitation","1"
"13949339695188","3","-0.28491","0.45010993","9.485827","agitation","1"
"13949359778919","3","-0.2896984","0.46926352","9.481039","agitation","1"
"13949379756303","3","-0.30406362","0.45250413","9.483433","agitation","1"
"13949399773611","3","-0.2873042","0.45010993","9.497798","agitation","1"
"13949419771561","3","-0.30645782","0.49559975","9.461885","agitation","1"
"13949439687073","3","-0.30885202","0.38307226","9.478644","agitation","1"
"13949459582727","3","-0.30406362","0.48602295","9.457097","agitation","1"
"13949479558650","3","-0.2873042","0.4429273","9.464279","agitation","1"
"13949499666581","3","-0.30885202","0.46686932","9.445126","agitation","1"
"13949519490688","3","-0.2873042","0.45489833","9.437943","agitation","1"
"13949539614091","3","-0.30166942","0.46686932","9.461885","agitation","1"
"13949559434803","3","-0.29448682","0.48841715","9.466674","agitation","1"
"13949579412842","3","-0.2705448","0.49799395","9.464279","agitation","1"
"13949599406034","3","-0.2801216","0.5267244","9.457097","agitation","1"
"13949619436073","3","-0.30645782","0.46926352","9.481039","agitation","1"
"13949639437089","3","-0.31124622","0.272939","9.52174","agitation","1"
"13949659395303","3","-0.22505496","0.46447513","9.607931","agitation","1"
"13949679310072","3","-0.1316811","0.36391866","9.737218","agitation","1"
"13949699160188","3","-0.2681506","0.23463176","9.617508","agitation","1"
"13949719041611","3","-0.2801216","0.45010993","9.416395","agitation","1"
"13949739029149","3","-0.32800564","0.557849","9.320627","agitation","1"
"13949759188065","3","-0.2753332","0.5315128","9.330204","agitation","1"
"13949778992303","3","-0.29209262","0.45489833","9.390059","agitation","1"
"13949798966765","3","-0.23463176","0.50517654","9.471462","agitation","1"
"13949819063554","3","-0.2873042","0.46447513","9.536105","agitation","1"
"13949839022050","3","-0.2681506","0.4429273","9.524135","agitation","1"
"13949858788380","3","-0.29448682","0.5410896","9.564836","agitation","1"
"13949878782380","3","-0.272939","0.4309563","9.461885","agitation","1"
"13949898692688","3","-0.29688102","0.6440403","9.43076","agitation","1"
"13949918774880","3","-0.2896984","0.50517654","9.459491","agitation","1"
"13949938814530","3","-0.2873042","0.5386954","9.500193","agitation","1"
"13949958773026","3","-0.17477672","0.4381389","9.435549","agitation","1"
"13949978515457","3","-0.33518824","0.21068975","9.481039","agitation","1"
"13949998512188","3","-0.35194764","0.5674258","9.49301","agitation","1"
"13950018536303","3","-0.22026655","0.46447513","9.560047","agitation","1"
"13950038418995","3","-0.32800564","0.47884035","9.509769","agitation","1"
"13950058403572","3","-0.24899697","0.4285621","9.485827","agitation","1"
"13950078439803","3","-0.2825158","0.39743748","9.507375","agitation","1"
"13950098319611","3","-0.31364042","0.5315128","9.44752","agitation","1"
"13950118471513","3","-0.25857377","0.46447513","9.464279","agitation","1"
"13950138246188","3","-0.33758244","0.47644615","9.473856","agitation","1"
"13950158168418","3","-0.30885202","0.47405192","9.528923","agitation","1"
"13950178260188","3","-0.36870706","0.79487497","9.421184","agitation","1"
"13950198276918","3","-0.1316811","0.062249243","9.3733","agitation","1"
"13950218069995","3","-0.3184288","0.7182605","9.184157","agitation","1"
"13950238222489","3","-0.22984336","0.30406362","9.349358","agitation","1"
"13950258211503","3","-0.20111294","0.51954174","9.325416","agitation","1"
"13950278039649","3","-0.31603462","0.48602295","9.478644","agitation","1"
"13950298085380","3","-0.2753332","0.45729253","9.533711","agitation","1"
"13950317866303","3","-0.33518824","0.36870706","9.425972","agitation","1"
"13950337814841","3","-0.32561144","0.49320555","9.385271","agitation","1"
"13950357975380","3","-0.31124622","0.35673606","9.500193","agitation","1"
"13950377757226","3","-0.39743748","0.4213795","9.490616","agitation","1"
"13950397708687","3","-0.33279404","0.45250413","9.488221","agitation","1"
"13950417672072","3","-0.30645782","0.47165772","9.473856","agitation","1"
"13950437695187","3","-0.35913026","0.40701428","9.442732","agitation","1"
"13950457630303","3","-0.32321724","0.4141969","9.421184","agitation","1"
"13950477754960","3","-0.18914193","0.5243302","9.411607","agitation","1"
"13950497494303","3","-0.08379706","0.23942018","9.665392","agitation","1"
"13950517449072","3","-0.4213795","0.40940848","9.461885","agitation","1"
"13950537406803","3","-0.2633622","0.34955344","9.495404","agitation","1"
"13950557405533","3","-0.40701428","0.545878","9.509769","agitation","1"
"13950577387456","3","-0.272939","0.47405192","9.473856","agitation","1"
"13950597367610","3","-0.36391866","0.557849","9.382876","agitation","1"
"13950617252187","3","-0.2777274","0.39264908","9.564836","agitation","1"
"13950637260418","3","-0.320823","0.4405331","9.500193","agitation","1"
"13950657197033","3","-0.272939","0.4357447","9.478644","agitation","1"
"13950677203072","3","-0.33518824","0.45729253","9.488221","agitation","1"
"13950697328934","3","-0.32321724","0.4381389","9.471462","agitation","1"
"13950717084764","3","-0.25617957","0.49799395","9.425972","agitation","1"
"13950737196533","3","-0.19871874","0.35194764","9.435549","agitation","1"
"13950757084687","3","-0.33997664","0.47165772","9.569624","agitation","1"
"13950777007995","3","-0.33039984","0.45489833","9.461885","agitation","1"
"13950797070302","3","-0.51714754","0.5530606","9.555259","agitation","1"
"13950816895341","3","-0.1340753","0.6488287","9.289502","agitation","1"
"13950836889610","3","-0.23942018","0.4237737","9.64145","agitation","1"
"13950856870879","3","-0.24420857","0.5530606","9.672575","agitation","1"
"13950876903264","3","-0.25378537","0.4213795","9.600749","agitation","1"
"13950896866725","3","-0.31364042","0.4429273","9.457097","agitation","1"
"13950916830802","3","-0.3184288","0.47405192","9.449914","agitation","1"
"13950936699110","3","-0.36391866","0.48602295","9.440337","agitation","1"
"13950956832033","3","-0.30885202","0.4309563","9.425972","agitation","1"
"13950976630495","3","-0.20590134","0.36631286","9.483433","agitation","1"
"13950996734495","3","-0.260968","0.4429273","9.469068","agitation","1"
"13951016544495","3","-0.30166942","0.45729253","9.514558","agitation","1"
"13951036641225","3","-0.29209262","0.44771573","9.500193","agitation","1"
"13951056734452","3","-0.2873042","0.45729253","9.495404","agitation","1"
"13951076536033","3","-0.29688102","0.4285621","9.459491","agitation","1"
"13951096428956","3","-0.272939","0.4309563","9.452309","agitation","1"
"13951116395418","3","-0.25139117","0.50517654","9.466674","agitation","1"
"13951136351610","3","-0.320823","0.48602295","9.481039","agitation","1"
"13951156526932","3","-0.2825158","0.46926352","9.49301","agitation","1"
"13951176463225","3","-0.33039984","0.50517654","9.533711","agitation","1"
"13951196443925","3","-0.2777274","0.4309563","9.504981","agitation","1"
"13951216215879","3","-0.2896984","0.48123455","9.466674","agitation","1"
"13951236260418","3","-0.28491","0.40701428","9.504981","agitation","1"
"13951256202918","3","-0.29688102","0.49559975","9.504981","agitation","1"
"13951276203802","3","-0.31603462","0.39504328","9.55047","agitation","1"
"13951296188610","3","-0.30645782","0.4285621","9.500193","agitation","1"
"13951316004802","3","-0.3184288","0.47165772","9.464279","agitation","1"
"13951335979841","3","-0.30166942","0.4261679","9.466674","agitation","1"
"13951356006456","3","-0.30885202","0.46686932","9.437943","agitation","1"
"13951375865148","3","-0.30645782","0.4237737","9.440337","agitation","1"
"13951396024071","3","-0.34237084","0.44771573","9.449914","agitation","1"
"13951415928456","3","-0.32321724","0.45968673","9.442732","agitation","1"
"13951435814264","3","-0.30166942","0.44532153","9.490616","agitation","1"
"13951455943648","3","-0.31124622","0.51714754","9.512163","agitation","1"
"13951475763379","3","-0.24420857","0.50038815","9.526528","agitation","1"
"13951495770571","3","-0.272939","0.5793968","9.445126","agitation","1"
"13951515798879","3","-0.23702596","0.48841715","9.459491","agitation","1"
"13951535860429","3","-0.30406362","0.40222588","9.533711","agitation","1"
"13951555818925","3","-0.08140286","0.38307226","9.588778","agitation","1"
"13951575777421","3","-0.521936","0.10534488","9.579201","agitation","1"
"13951595634725","3","-0.36152446","0.61770403","9.425972","agitation","1"
"13951615562302","3","-0.2777274","0.37588966","9.416395","agitation","1"
"13951635483110","3","-0.3878607","0.51235914","9.445126","agitation","1"
"13951655609456","3","-0.2777274","0.3878607","9.528923","agitation","1"
"13951675600419","3","-0.28491","0.49799395","9.504981","agitation","1"
"13951695527148","3","-0.2896984","0.46686932","9.504981","agitation","1"
"13951715469033","3","-0.2825158","0.47405192","9.500193","agitation","1"
"13951735307879","3","-0.29448682","0.48841715","9.485827","agitation","1"
"13951755422186","3","-0.30166942","0.45010993","9.483433","agitation","1"
"13951775206609","3","-0.29927522","0.46686932","9.478644","agitation","1"
"13951795200148","3","-0.2753332","0.4405331","9.483433","agitation","1"
"13951815309891","3","-0.2801216","0.46926352","9.471462","agitation","1"
"13951835220725","3","-0.2873042","0.46447513","9.471462","agitation","1"
"13951855144225","3","-0.2873042","0.48123455","9.485827","agitation","1"
"13951875215897","3","-0.29209262","0.46208093","9.481039","agitation","1"
"13951895048417","3","-0.30166942","0.45729253","9.495404","agitation","1"
"13951915149994","3","-0.29448682","0.46686932","9.485827","agitation","1"
"13951934901994","3","-0.29448682","0.45968673","9.495404","agitation","1"
"13951955079725","3","-0.2896984","0.45968673","9.478644","agitation","1"
"13951974930994","3","-0.2896984","0.45489833","9.483433","agitation","1"
"13951994844148","3","-0.29209262","0.45968673","9.488221","agitation","1"
"13952014934494","3","-0.28491","0.46447513","9.485827","agitation","1"
"13952034887994","3","-0.2896984","0.45010993","9.495404","agitation","1"
"13952054861071","3","-0.29688102","0.46447513","9.485827","agitation","1"
"13952074892411","3","-0.29448682","0.46447513","9.488221","agitation","1"
"13952094820389","3","-0.29209262","0.46208093","9.478644","agitation","1"
"13952114774686","3","-0.29448682","0.45968673","9.481039","agitation","1"
"13952134767899","3","-0.30645782","0.45250413","9.495404","agitation","1"
"13952154572148","3","-0.2896984","0.46208093","9.488221","agitation","1"
"13952174684891","3","-0.29448682","0.45729253","9.481039","agitation","1"
"13952194641725","3","-0.2825158","0.46447513","9.476251","agitation","1"
"13952214601884","3","-0.29209262","0.46686932","9.49301","agitation","1"
"13952234461878","3","-0.2873042","0.46208093","9.478644","agitation","1"
"13952254417840","3","-0.2896984","0.46447513","9.488221","agitation","1"
"13952274473955","3","-0.2873042","0.45729253","9.500193","agitation","1"
"13952294411494","3","-0.29209262","0.46208093","9.481039","agitation","1"
"13952314269224","3","-0.2873042","0.45968673","9.478644","agitation","1"
"13952334307686","3","-0.2896984","0.46208093","9.488221","agitation","1"
"13952354295301","3","-0.29209262","0.45489833","9.483433","agitation","1"
"13952374064301","3","-0.29209262","0.45968673","9.483433","agitation","1"
"13952394010724","3","-0.29448682","0.45729253","9.495404","agitation","1"
"13952414046417","3","-0.28491","0.45968673","9.49301","agitation","1"
"13952434042994","3","-0.30166942","0.46926352","9.485827","agitation","1"
"13952454134354","3","-0.28491","0.45968673","9.502586","agitation","1"
"13952474033917","3","-0.2873042","0.45968673","9.483433","agitation","1"
"13952494048455","3","-0.29448682","0.45729253","9.476251","agitation","1"
"13952514040360","3","-0.2896984","0.45489833","9.507375","agitation","1"
"13952533794763","3","-0.29927522","0.46686932","9.488221","agitation","1"
"13952553810763","3","-0.29927522","0.46447513","9.483433","agitation","1"
"13952573915848","3","-0.29927522","0.46686932","9.490616","agitation","1"
"13952593874345","3","-0.2825158","0.47165772","9.485827","agitation","1"
"13952613778493","3","-0.29209262","0.45968673","9.488221","agitation","1"
"13952633548032","3","-0.2896984","0.46447513","9.495404","agitation","1"
"13952653665763","3","-0.29927522","0.45729253","9.476251","agitation","1"
"13952673707455","3","-0.30166942","0.46208093","9.49301","agitation","1"
"13952693655340","3","-0.30406362","0.46447513","9.476251","agitation","1"
"13952713600993","3","-0.29688102","0.45489833","9.481039","agitation","1"
"13952733384493","3","-0.29448682","0.46686932","9.485827","agitation","1"
"13952753375647","3","-0.2873042","0.46208093","9.497798","agitation","1"
"13952773339686","3","-0.2896984","0.46447513","9.478644","agitation","1"
"13952793466032","3","-0.30166942","0.45729253","9.478644","agitation","1"
"13952813495070","3","-0.2896984","0.46686932","9.49301","agitation","1"
"13952833488801","3","-0.29448682","0.46686932","9.490616","agitation","1"
"13952853285993","3","-0.29927522","0.45489833","9.483433","agitation","1"
"13952873415360","3","-0.29448682","0.46208093","9.485827","agitation","1"
"13952893384686","3","-0.29448682","0.46686932","9.483433","agitation","1"
"13952913190301","3","-0.29209262","0.45729253","9.478644","agitation","1"
"13952933296378","3","-0.29448682","0.46208093","9.478644","agitation","1"
"13952953269224","3","-0.29448682","0.47165772","9.473856","agitation","1"
"13952973019109","3","-0.2896984","0.45250413","9.488221","agitation","1"
"13952993166916","3","-0.30166942","0.46208093","9.495404","agitation","1"
"13953012929532","3","-0.29209262","0.45968673","9.481039","sit up","1"
"13953032889647","3","-0.29688102","0.45729253","9.488221","sit up","1"
"13953052972109","3","-0.29448682","0.46208093","9.488221","sit up","1"
"13953072919839","3","-0.28491","0.45489833","9.481039","sit up","1"
"13953092906032","3","-0.2896984","0.45250413","9.49301","sit up","1"
"13953112783570","3","-0.29927522","0.45968673","9.495404","sit up","1"
"13953132700455","3","-0.29688102","0.45729253","9.483433","sit up","1"
"13953152712532","3","-0.2896984","0.46686932","9.485827","sit up","1"
"13953172654070","3","-0.29927522","0.46926352","9.49301","sit up","1"
"13953192715608","3","-0.29688102","0.46447513","9.483433","sit up","1"
"13953212719301","3","-0.2825158","0.44771573","9.49301","sit up","1"
"13953232616301","3","-0.28491","0.44532153","9.49301","sit up","1"
"13953252739070","3","-0.2896984","0.46208093","9.488221","sit up","1"
"13953272510570","3","-0.29209262","0.46208093","9.478644","sit up","1"
"13953292560801","3","-0.29209262","0.46686932","9.466674","sit up","1"
"13953312496493","3","-0.30406362","0.46208093","9.485827","sit up","1"
"13953332463878","3","-0.2873042","0.45250413","9.497798","sit up","1"
"13953352400916","3","-0.29688102","0.45968673","9.500193","sit up","1"
"13953372278685","3","-0.2896984","0.45729253","9.500193","sit up","1"
"13953392326685","3","-0.29448682","0.45968673","9.490616","sit up","1"
"13953412194878","3","-0.29209262","0.45729253","9.483433","sit up","1"
"13953432138762","3","-0.2873042","0.46208093","9.483433","sit up","1"
"13953452121685","3","-0.29688102","0.46447513","9.488221","sit up","1"
"13953472144916","3","-0.29209262","0.45729253","9.488221","sit up","1"
"13953492142262","3","-0.29448682","0.45489833","9.49301","sit up","1"
"13953512125416","3","-0.29209262","0.46686932","9.485827","sit up","1"
"13953532091339","3","-0.2873042","0.46686932","9.478644","sit up","1"
"13953551930608","3","-0.28491","0.45968673","9.485827","sit up","1"
"13953571875570","3","-0.29927522","0.46686932","9.488221","sit up","1"
"13953591994147","3","-0.2896984","0.45968673","9.473856","sit up","1"
"13953611840531","3","-0.2896984","0.45729253","9.481039","sit up","1"
"13953631921185","3","-0.29688102","0.45250413","9.485827","sit up","1"
"13953651939685","3","-0.2873042","0.46926352","9.481039","sit up","1"
"13953671718147","3","-0.29688102","0.47165772","9.488221","sit up","1"
"13953691749762","3","-0.2896984","0.46208093","9.485827","sit up","1"
"13953711643685","3","-0.29209262","0.4285621","9.478644","sit up","1"
"13953731613647","3","-0.2896984","0.4357447","9.452309","sit up","1"
"13953751556570","3","-0.29927522","0.47405192","9.485827","sit up","1"
"13953771551454","3","-0.2657564","0.47644615","9.531317","sit up","1"
"13953791744454","3","-0.29688102","0.51714754","9.502586","sit up","1"
"13953811596993","3","-0.30406362","0.47644615","9.526528","sit up","1"
"13953831549916","3","-0.3184288","0.4381389","9.528923","sit up","1"
"13953851423762","3","-0.320823","0.45729253","9.519346","sit up","1"
"13953871471800","3","-0.34237084","0.46447513","9.528923","sit up","1"
"13953891292877","3","-0.30885202","0.51235914","9.478644","sit up","1"
"13953911277377","3","-0.2896984","0.47884035","9.478644","sit up","1"
"13953931251916","3","-0.2873042","0.45489833","9.497798","sit up","1"
"13953951440300","3","-0.30885202","0.46447513","9.471462","sit up","1"
"13953971168685","3","-0.30166942","0.48841715","9.457097","sit up","1"
"13953991121800","3","-0.33039984","0.50038815","9.423578","sit up","1"
"13954011213262","3","-0.2753332","0.36152446","9.543288","sit up","1"
"13954031192531","3","-0.37588966","0.50278234","9.543288","sit up","1"
"13954051129839","3","-0.30166942","0.39025488","9.459491","sit up","1"
"13954071053185","3","-0.31603462","0.32321724","9.378088","sit up","1"
"13954091158280","3","-0.25857377","0.47644615","9.466674","sit up","1"
"13954110908185","3","-0.33039984","0.46686932","9.41879","sit up","1"
"13954130952339","3","-0.29448682","0.46926352","9.425972","sit up","1"
"13954151001262","3","-0.30645782","0.44771573","9.471462","sit up","1"
"13954170829262","3","-0.3184288","0.4333505","9.459491","sit up","1"
"13954190665762","3","-0.30885202","0.4189853","9.476251","sit up","1"
"13954210608377","3","-0.30645782","0.4189853","9.459491","sit up","1"
"13954230867753","3","-0.33518824","0.46686932","9.457097","sit up","1"
"13954250574377","3","-0.3184288","0.48123455","9.44752","sit up","1"
"13954270543223","3","-0.3184288","0.44771573","9.502586","sit up","1"
"13954290499531","3","-0.320823","0.4333505","9.502586","sit up","1"
"13954310532685","3","-0.31603462","0.4381389","9.531317","sit up","1"
"13954330512723","3","-0.36391866","0.4165911","9.483433","sit up","1"
"13954350519608","3","-0.35194764","0.44532153","9.466674","sit up","1"
"13954370372146","3","-0.31124622","0.44532153","9.40203","sit up","1"
"13954390365531","3","-0.30885202","0.44771573","9.476251","sit up","1"
"13954410330261","3","-0.32561144","0.4309563","9.528923","sit up","1"
"13954430246684","3","-0.33518824","0.4333505","9.528923","sit up","1"
"13954450285992","3","-0.33039984","0.45010993","9.485827","sit up","1"
"13954470264877","3","-0.29209262","0.4381389","9.435549","sit up","1"
"13954490119838","3","-0.45250413","0.5770026","9.382876","sit up","1"
"13954510112761","3","-1.1013328","0.18914193","9.727641","sit up","1"
"13954530327454","3","-0.20111294","0.58657944","9.64145","sit up","1"
"13954550028107","3","0.06464344","-0.15562311","10.769119","sit up","1"
"13954569980761","3","0.25378537","0.5434838","8.659827","sit up","1"
"13954590019261","3","-0.45489833","0.47884035","8.542512","sit up","1"
"13954609960261","3","-0.25139117","0.45729253","9.198523","sit up","1"
"13954630105492","3","-0.39743748","0.30885202","9.631873","sit up","1"
"13954650030607","3","-0.36631286","0.2753332","9.622296","sit up","1"
"13954669973992","3","-0.24181437","0.4213795","9.473856","sit up","1"
"13954689822761","3","-0.23942018","0.4237737","9.41879","sit up","1"
"13954709947992","3","-0.2681506","0.4381389","9.406818","sit up","1"
"13954729952225","3","-0.2801216","0.44771573","9.440337","sit up","1"
"13954749910722","3","-0.34476504","0.4237737","9.473856","sit up","1"
"13954769669107","3","-0.33997664","0.45489833","9.476251","sit up","1"
"13954789772184","3","-0.34237084","0.45010993","9.440337","sit up","1"
"13954809518992","3","-0.32800564","0.45250413","9.495404","sit up","1"
"13954829517184","3","-0.29688102","0.46686932","9.502586","sit up","1"
"13954849489223","3","-0.29927522","0.4333505","9.490616","sit up","1"
"13954869486723","3","-0.30166942","0.41180268","9.49301","sit up","1"
"13954889607184","3","-0.29209262","0.4333505","9.514558","sit up","1"
"13954909511992","3","-0.3184288","0.46208093","9.49301","sit up","1"
"13954929441530","3","-0.35673606","0.4309563","9.514558","sit up","1"
"13954949369684","3","-0.36152446","0.4261679","9.466674","sit up","1"
"13954969492684","3","-0.31124622","0.4429273","9.445126","sit up","1"
"13954989233030","3","-0.30166942","0.46686932","9.500193","sit up","1"
"13955009211184","3","-0.32561144","0.39504328","9.509769","sit up","1"
"13955029203569","3","-0.32800564","0.45010993","9.481039","sit up","1"
"13955049082376","3","-0.32800564","0.4261679","9.500193","sit up","1"
"13955069087953","3","-0.37349546","0.4285621","9.509769","sit up","1"
"13955089065338","3","-0.34955344","0.4309563","9.504981","sit up","1"
"13955108984261","3","-0.32321724","0.40701428","9.481039","sit up","1"
"13955129189261","3","-0.35913026","0.45250413","9.514558","sit up","1"
"13955148928376","3","-0.33758244","0.45729253","9.579201","sit up","1"
"13955168880838","3","-0.36631286","0.4261679","9.531317","sit up","1"
"13955189038299","3","-0.33518824","0.4189853","9.504981","sit up","1"
"13955209001684","3","-0.31603462","0.4141969","9.512163","sit up","1"
"13955228859838","3","-0.33758244","0.4357447","9.476251","sit up","1"
"13955248835953","3","-0.3184288","0.51235914","9.454702","sit up","1"
"13955268923376","3","-0.37110126","0.36870706","9.457097","sit up","1"
"13955288631107","3","-0.34476504","0.38067806","9.49301","sit up","1"
"13955308870682","3","-0.34955344","0.4189853","9.485827","sit up","1"
"13955328582107","3","-0.33758244","0.45729253","9.437943","sit up","1"
"13955348510684","3","-0.31124622","0.44771573","9.44752","sit up","1"
"13955368654915","3","-0.30166942","0.4261679","9.497798","sit up","1"
"13955388548107","3","-0.33997664","0.4405331","9.502586","sit up","1"
"13955408438799","3","-0.34476504","0.4237737","9.502586","sit up","1"
"13955428448338","3","-0.34955344","0.4165911","9.485827","sit up","1"
"13955448393722","3","-0.30885202","0.4165911","9.452309","sit up","1"
"13955468425222","3","-0.33997664","0.4261679","9.437943","sit up","1"
"13955488290145","3","-0.36631286","0.39983168","9.495404","sit up","1"
"13955508255068","3","-0.34715924","0.4261679","9.533711","sit up","1"
"13955528190453","3","-0.32800564","0.40222588","9.528923","sit up","1"
"13955548205299","3","-0.36870706","0.39743748","9.552865","sit up","1"
"13955568324991","3","-0.34237084","0.40701428","9.478644","sit up","1"
"13955588259299","3","-0.30885202","0.19393034","9.437943","sit up","1"
"13955608050107","3","-0.39264908","0.30885202","9.701305","sit up","1"
"13955628298173","3","-0.2657564","0.4381389","9.655815","sit up","1"
"13955648112222","3","-0.1436521","0.45250413","9.442732","sit up","1"
"13955668167568","3","-0.30885202","0.48362875","9.43076","sit up","1"
"13955687922261","3","-0.2753332","0.48362875","9.476251","sit up","1"
"13955708118260","3","-0.29688102","0.45250413","9.500193","sit up","1"
"13955727978953","3","-0.33279404","0.39983168","9.490616","sit up","1"
"13955747945299","3","-0.3184288","0.40462008","9.495404","sit up","1"
"13955767967837","3","-0.3184288","0.40701428","9.502586","sit up","1"
"13955787610792","3","-0.3184288","0.39743748","9.49301","sit up","1"
"13955807569288","3","-0.32800564","0.40701428","9.485827","sit up","1"
"13955827527784","3","-0.33518824","0.40940848","9.488221","sit up","1"
"13955847516798","3","-0.32561144","0.4285621","9.481039","sit up","1"
"13955867475294","3","-0.31603462","0.4189853","9.49301","sit up","1"
"13955887464308","3","-0.30645782","0.4141969","9.490616","sit up","1"
"13955907422804","3","-0.30885202","0.4141969","9.488221","sit up","1"
"13955927381300","3","-0.35434186","0.41180268","9.500193","sit up","1"
"13955947339796","3","-0.32561144","0.40222588","9.495404","sit up","1"
"13955967298292","3","-0.32321724","0.4429273","9.49301","sit up","1"
"13955987256788","3","-0.33279404","0.39025488","9.49301","sit up","1"
"13956007184767","3","-0.32561144","0.40222588","9.502586","sit up","1"
"13956027143263","3","-0.33039984","0.40222588","9.504981","sit up","1"
"13956047071241","3","-0.33518824","0.39025488","9.485827","sit up","1"
"13956067060255","3","-0.33758244","0.4141969","9.478644","sit up","1"
"13956087018751","3","-0.33279404","0.39983168","9.478644","sit up","1"
"13956106977247","3","-0.32561144","0.40222588","9.485827","sit up","1"
"13956126935743","3","-0.33039984","0.40701428","9.483433","sit up","1"
"13956146924757","3","-0.320823","0.39983168","9.49301","sit up","1"
"13956166913771","3","-0.33518824","0.4165911","9.490616","sit up","1"
"13956186841749","3","-0.3184288","0.4141969","9.485827","sit up","1"
"13956206830763","3","-0.33518824","0.4141969","9.481039","sit up","1"
"13956226789259","3","-0.32561144","0.41180268","9.483433","sit up","1"
"13956246747755","3","-0.3184288","0.4141969","9.490616","sit up","1"
"13956266736769","3","-0.32561144","0.4189853","9.500193","sit up","1"
"13956286695265","3","-0.32321724","0.40940848","9.495404","sit up","1"
"13956306653761","3","-0.33039984","0.41180268","9.485827","sit up","1"
"13956326612257","3","-0.31364042","0.40222588","9.490616","sit up","1"
"13956346570753","3","-0.33039984","0.41180268","9.490616","sit up","1"
"13956366529249","3","-0.320823","0.41180268","9.49301","sit up","1"
"13956386518263","3","-0.32561144","0.41180268","9.502586","sit up","1"
"13956406476759","3","-0.32321724","0.40462008","9.488221","sit up","1"
"13956426465773","3","-0.32561144","0.40701428","9.49301","sit up","1"
"13956446424269","3","-0.32321724","0.4165911","9.478644","sit up","1"
"13956466413282","3","-0.31124622","0.40940848","9.485827","sit up","1"
"13956486371779","3","-0.3184288","0.4189853","9.485827","sit up","1"
"13956506330275","3","-0.32321724","0.4165911","9.488221","sit up","1"
"13956526288771","3","-0.32321724","0.40222588","9.490616","sit up","1"
"13956546247267","3","-0.32321724","0.39983168","9.481039","sit up","1"
"13956566205763","3","-0.32561144","0.4165911","9.481039","sit up","1"
"13956586164259","3","-0.32321724","0.40940848","9.485827","sit up","1"
"13956606092237","3","-0.32561144","0.41180268","9.49301","sit up","1"
"13956626050734","3","-0.32321724","0.40940848","9.490616","sit up","1"
"13956646009230","3","-0.32561144","0.41180268","9.495404","sit up","1"
"13956665998243","3","-0.32561144","0.40701428","9.490616","sit up","1"
"13956685956739","3","-0.33758244","0.40462008","9.473856","sit up","1"
"13956705915236","3","-0.320823","0.40940848","9.488221","sit up","1"
"13956725904249","3","-0.320823","0.40222588","9.49301","sit up","1"
"13956745862745","3","-0.33039984","0.4141969","9.49301","sit up","1"
"13956765821241","3","-0.320823","0.4141969","9.488221","sit up","1"
"13956785810255","3","-0.3184288","0.4213795","9.49301","sit up","1"
"13956805768751","3","-0.32800564","0.40940848","9.490616","sit up","1"
"13956825727247","3","-0.33039984","0.40940848","9.481039","sit up","1"
"13956845655226","3","-0.33039984","0.41180268","9.49301","sit up","1"
"13956865644239","3","-0.32321724","0.41180268","9.481039","sit up","1"
"13956885602736","3","-0.33039984","0.40940848","9.497798","sit up","1"
"13956905561232","3","-0.32321724","0.40940848","9.490616","sit up","1"
"13956925519728","3","-0.32800564","0.4141969","9.483433","sit up","1"
"13956945478224","3","-0.32800564","0.4141969","9.488221","sit up","1"
"13956965436720","3","-0.33518824","0.40940848","9.488221","sit up","1"
"13956985425734","3","-0.32800564","0.4141969","9.481039","sit up","1"
"13957005384230","3","-0.33039984","0.40462008","9.488221","stand up","1"
"13957025342726","3","-0.320823","0.4213795","9.481039","stand up","1"
"13957045301222","3","-0.33518824","0.4141969","9.495404","stand up","1"
"13957065259718","3","-0.320823","0.4189853","9.500193","stand up","1"
"13957085218214","3","-0.3184288","0.4141969","9.488221","stand up","1"
"13957105176710","3","-0.32800564","0.40462008","9.488221","stand up","1"
"13957125165724","3","-0.32561144","0.40940848","9.478644","stand up","1"
"13957145124220","3","-0.32561144","0.4165911","9.483433","stand up","1"
"13957165082716","3","-0.33518824","0.41180268","9.497798","stand up","1"
"13957185041212","3","-0.33518824","0.39743748","9.502586","stand up","1"
"13957204999708","3","-0.33518824","0.40940848","9.495404","stand up","1"
"13957224958204","3","-0.33279404","0.41180268","9.485827","stand up","1"
"13957244916700","3","-0.31364042","0.4213795","9.478644","stand up","1"
"13957264875196","3","-0.3184288","0.40701428","9.483433","stand up","1"
"13957284833693","3","-0.30645782","0.40940848","9.495404","stand up","1"
"13957304822706","3","-0.33039984","0.4213795","9.52174","stand up","1"
"13957324781202","3","-0.33518824","0.39504328","9.509769","stand up","1"
"13957344739698","3","-0.34476504","0.4189853","9.483433","stand up","1"
"13957364728712","3","-0.33518824","0.40701428","9.469068","stand up","1"
"13957384687208","3","-0.33039984","0.4189853","9.473856","stand up","1"
"13957404645704","3","-0.33039984","0.4141969","9.49301","stand up","1"
"13957424634718","3","-0.33518824","0.4285621","9.495404","stand up","1"
"13957444593214","3","-0.33279404","0.40701428","9.495404","stand up","1"
"13957464551710","3","-0.33039984","0.4165911","9.469068","stand up","1"
"13957484510206","3","-0.33039984","0.40940848","9.478644","stand up","1"
"13957504438185","3","-0.32800564","0.4285621","9.488221","stand up","1"
"13957524427198","3","-0.32561144","0.40940848","9.483433","stand up","1"
"13957544385695","3","-0.4381389","0.39743748","9.519346","stand up","1"
"13957564344191","3","-0.34476504","0.4357447","9.49301","stand up","1"
"13957584302687","3","-0.33758244","0.39983168","9.485827","stand up","1"
"13957604261183","3","-0.33279404","0.3854665","9.485827","stand up","1"
"13957624250196","3","-0.33997664","0.40940848","9.528923","stand up","1"
"13957644208693","3","-0.33279404","0.39504328","9.516952","stand up","1"
"13957664167189","3","-0.32561144","0.39983168","9.507375","stand up","1"
"13957684125685","3","-0.33758244","0.40940848","9.497798","stand up","1"
"13957704084181","3","-0.34715924","0.39743748","9.476251","stand up","1"
"13957724073195","3","-0.35194764","0.3878607","9.473856","stand up","1"
"13957744031691","3","-0.37110126","0.40940848","9.516952","stand up","1"
"13957763990187","3","-0.36391866","0.38067806","9.471462","stand up","1"
"13957783948683","3","-0.30406362","0.34237084","9.509769","stand up","1"
"13957803907179","3","-0.36152446","0.4405331","9.540894","stand up","1"
"13957823865675","3","-0.25139117","0.46208093","9.361329","stand up","1"
"13957843824171","3","-0.33758244","0.09816227","9.471462","stand up","1"
"13957863782667","3","-0.2633622","0.6727707","9.466674","stand up","1"
"13957883710646","3","-0.23702596","0.5267244","9.500193","stand up","1"
"13957903699659","3","-0.40462008","0.22984336","9.600749","stand up","1"
"13957923658155","3","-0.35194764","0.4285621","9.524135","stand up","1"
"13957943616652","3","-0.32800564","0.39504328","9.457097","stand up","1"
"13957963575148","3","-0.31603462","0.3854665","9.452309","stand up","1"
"13957983564161","3","-0.33997664","0.4189853","9.459491","stand up","1"
"13958003522657","3","-0.3184288","0.39983168","9.485827","stand up","1"
"13958023511671","3","-0.32561144","0.40701428","9.502586","stand up","1"
"13958043439650","3","-0.33758244","0.39504328","9.49301","stand up","1"
"13958063428663","3","-0.32800564","0.40701428","9.483433","stand up","1"
"13958083417677","3","-0.32800564","0.39743748","9.483433","stand up","1"
"13958103376173","3","-0.32561144","0.41180268","9.490616","stand up","1"
"13958123334669","3","-0.32321724","0.39504328","9.49301","stand up","1"
"13958143293165","3","-0.3184288","0.39983168","9.500193","stand up","1"
"13958163251661","3","-0.33039984","0.40222588","9.485827","stand up","1"
"13958183210157","3","-0.32321724","0.39264908","9.495404","stand up","1"
"13958203168654","3","-0.32561144","0.39264908","9.478644","stand up","1"
"13958223127150","3","-0.320823","0.40462008","9.481039","stand up","1"
"13958243116163","3","-0.31603462","0.40222588","9.49301","stand up","1"
"13958263074659","3","-0.32561144","0.39983168","9.490616","stand up","1"
"13958283063673","3","-0.32561144","0.40222588","9.500193","stand up","1"
"13958303022169","3","-0.32800564","0.39504328","9.497798","stand up","1"
"13958323011183","3","-0.32800564","0.40222588","9.485827","stand up","1"
"13958342969679","3","-0.32561144","0.40462008","9.485827","stand up","1"
"13958362928175","3","-0.320823","0.39983168","9.483433","stand up","1"
"13958382886671","3","-0.33518824","0.40222588","9.488221","stand up","1"
"13958402845167","3","-0.32800564","0.39264908","9.497798","stand up","1"
"13958422803663","3","-0.32561144","0.40222588","9.49301","stand up","1"
"13958442762159","3","-0.33997664","0.40222588","9.485827","stand up","1"
"13958462720655","3","-0.33039984","0.40222588","9.49301","stand up","1"
"13958482709669","3","-0.32561144","0.40222588","9.478644","stand up","1"
"13958502698683","3","-0.32321724","0.40222588","9.495404","stand up","1"
"13958522657179","3","-0.33758244","0.39983168","9.488221","stand up","1"
"13958542615675","3","-0.33039984","0.39983168","9.485827","stand up","1"
"13958562574171","3","-0.32800564","0.39983168","9.471462","stand up","1"
"13958582502150","3","-0.32561144","0.39025488","9.485827","stand up","1"
"13958602491163","3","-0.33518824","0.40701428","9.490616","stand up","1"
"13958622449659","3","-0.32321724","0.40940848","9.478644","stand up","1"
"13958642408155","3","-0.32321724","0.40940848","9.495404","stand up","1"
"13958662397169","3","-0.32321724","0.39743748","9.490616","stand up","1"
"13958682355665","3","-0.34237084","0.39504328","9.488221","stand up","1"
"13958702314161","3","-0.33997664","0.40462008","9.485827","stand up","1"
"13958722242140","3","-0.33279404","0.39504328","9.500193","stand up","1"
"13958742231154","3","-0.32561144","0.39983168","9.490616","stand up","1"
"13958762189650","3","-0.32561144","0.3854665","9.495404","stand up","1"
"13958782148146","3","-0.32321724","0.40222588","9.490616","stand up","1"
"13958802137159","3","-0.320823","0.39983168","9.481039","stand up","1"
"13958822095655","3","-0.32800564","0.40462008","9.490616","stand up","1"
"13958842054152","3","-0.32321724","0.40222588","9.488221","stand up","1"
"13958862012648","3","-0.32561144","0.39983168","9.488221","stand up","1"
"13958881971144","3","-0.33279404","0.40222588","9.49301","stand up","1"
"13958901960157","3","-0.32561144","0.40940848","9.49301","stand up","1"
"13958921888136","3","-0.32561144","0.39983168","9.485827","stand up","1"
"13958941846632","3","-0.33279404","0.39983168","9.485827","stand up","1"
"13958961805128","3","-0.32800564","0.40701428","9.488221","stand up","1"
"13958981824659","3","-0.32561144","0.39504328","9.485827","stand up","1"
"13959001783155","3","-0.32800564","0.39983168","9.49301","stand up","1"
"13959021741652","3","-0.32321724","0.39983168","9.495404","stand up","1"
"13959041700148","3","-0.33279404","0.39743748","9.481039","stand up","1"
"13959061689161","3","-0.33997664","0.39983168","9.478644","stand up","1"
"13959081647657","3","-0.33039984","0.40462008","9.485827","stand up","1"
"13959101575636","3","-0.32561144","0.40462008","9.49301","stand up","1"
"13959121564650","3","-0.32561144","0.39504328","9.490616","stand up","1"
"13959141523146","3","-0.32561144","0.39264908","9.490616","stand up","1"
"13959161481642","3","-0.31603462","0.39504328","9.485827","stand up","1"
"13959181440138","3","-0.33279404","0.39983168","9.476251","stand up","1"
"13959201398634","3","-0.33518824","0.39025488","9.488221","stand up","1"
"13959221387648","3","-0.32561144","0.3854665","9.485827","stand up","1"
"13959241346144","3","-0.3184288","0.40701428","9.49301","stand up","1"
"13959261304640","3","-0.32561144","0.39743748","9.495404","stand up","1"
"13959281263136","3","-0.32561144","0.39743748","9.485827","stand up","1"
"13959301221632","3","-0.32800564","0.39504328","9.481039","stand up","1"
"13959321210646","3","-0.33518824","0.39983168","9.483433","stand up","1"
"13959341169142","3","-0.32800564","0.3878607","9.495404","stand up","1"
"13959361127638","3","-0.32800564","0.39025488","9.481039","stand up","1"
"13959381086134","3","-0.320823","0.39983168","9.490616","stand up","1"
"13959401044630","3","-0.320823","0.39504328","9.500193","stand up","1"
"13959421003126","3","-0.33039984","0.40462008","9.488221","stand up","1"
"13959440931105","3","-0.33039984","0.39504328","9.488221","stand up","1"
"13959460920118","3","-0.32800564","0.3878607","9.490616","stand up","1"
"13959480878614","3","-0.3184288","0.39025488","9.502586","stand up","1"
"13959500867628","3","-0.320823","0.39743748","9.485827","stand up","1"
"13959520826124","3","-0.32321724","0.39983168","9.488221","stand up","1"
"13959540784620","3","-0.32561144","0.39743748","9.483433","stand up","1"
"13959560712599","3","-0.32561144","0.39504328","9.500193","stand up","1"
"13959580701612","3","-0.33039984","0.39983168","9.488221","stand up","1"
"13959600660109","3","-0.32800564","0.39264908","9.490616","stand up","1"
"13959620618605","3","-0.33279404","0.40462008","9.500193","stand up","1"
"13959640577101","3","-0.320823","0.39743748","9.495404","stand up","1"
"13959660535597","3","-0.32561144","0.40462008","9.476251","stand up","1"
"13959680494093","3","-0.32800564","0.39983168","9.490616","stand up","1"
"13959700483107","3","-0.33518824","0.39983168","9.490616","stand up","1"
"13959720441603","3","-0.32800564","0.39504328","9.502586","stand up","1"
"13959740400099","3","-0.33279404","0.39504328","9.488221","stand up","1"
"13959760358595","3","-0.32561144","0.3878607","9.49301","stand up","1"
"13959780317091","3","-0.32321724","0.40701428","9.485827","stand up","1"
"13959800306105","3","-0.33039984","0.40222588","9.490616","stand up","1"
"13959820264601","3","-0.32800564","0.40222588","9.495404","stand up","1"
"13959840223097","3","-0.32561144","0.39983168","9.495404","stand up","1"
"13959860181593","3","-0.33039984","0.39025488","9.500193","stand up","1"
"13959880140089","3","-0.31124622","0.39504328","9.497798","stand up","1"
"13959900098585","3","-0.33039984","0.39983168","9.490616","stand up","1"
"13959920057081","3","-0.31603462","0.39983168","9.485827","stand up","1"
"13959940046095","3","-0.33279404","0.39264908","9.488221","stand up","1"
"13959960035109","3","-0.32561144","0.39504328","9.490616","stand up","1"
"13959979993605","3","-0.32561144","0.39504328","9.481039","stand up","1"
"13959999952101","3","-0.31603462","0.39743748","9.481039","stand up","1"
"13960019910597","3","-0.32561144","0.39504328","9.481039","stand up","1"
"13960039899611","3","-0.33279404","0.39743748","9.485827","stand up","1"
"13960059858107","3","-0.32321724","0.39504328","9.488221","stand up","1"
"13960079816603","3","-0.32321724","0.40222588","9.483433","stand up","1"
"13960099775099","3","-0.33039984","0.39504328","9.49301","stand up","1"
"13960119733595","3","-0.32800564","0.39983168","9.488221","stand up","1"
"13960139692091","3","-0.32800564","0.40222588","9.485827","stand up","1"
"13960159650587","3","-0.32321724","0.4141969","9.49301","stand up","1"
"13960179609083","3","-0.32800564","0.39504328","9.483433","stand up","1"
"13960199567579","3","-0.33279404","0.40222588","9.495404","stand up","1"
"13960219556593","3","-0.33279404","0.39743748","9.490616","stand up","1"
"13960239515089","3","-0.320823","0.39743748","9.49301","stand up","1"
"13960259473585","3","-0.33279404","0.39743748","9.485827","stand up","1"
"13960279401564","3","-0.32800564","0.39743748","9.478644","stand up","1"
"13960299390577","3","-0.320823","0.39983168","9.481039","stand up","1"
"13960319349073","3","-0.33518824","0.39743748","9.488221","stand up","1"
"13960339338087","3","-0.32321724","0.3878607","9.485827","stand up","1"
"13960359266066","3","-0.31603462","0.39504328","9.495404","stand up","1"
"13960379255079","3","-0.32561144","0.39264908","9.485827","stand up","1"
"13960399213575","3","-0.32561144","0.39983168","9.485827","stand up","1"
"13960419172071","3","-0.32800564","0.39504328","9.488221","stand up","1"
"13960439130568","3","-0.32800564","0.39504328","9.478644","stand up","1"
"13960459089064","3","-0.3184288","0.39025488","9.485827","stand up","1"
"13960479047560","3","-0.33518824","0.40701428","9.495404","stand up","1"
"13960499006056","3","-0.31603462","0.39264908","9.485827","stand up","1"
"13960518964552","3","-0.32561144","0.40222588","9.485827","stand up","1"
"13960538923048","3","-0.33279404","0.4141969","9.488221","stand up","1"
"13960558881544","3","-0.33039984","0.39983168","9.476251","stand up","1"
"13960578840040","3","-0.33039984","0.40462008","9.488221","stand up","1"
"13960598798536","3","-0.33518824","0.40222588","9.485827","stand up","1"
"13960618787550","3","-0.33039984","0.39983168","9.504981","stand up","1"
"13960638746046","3","-0.33039984","0.39743748","9.483433","stand up","1"
"13960658674025","3","-0.33518824","0.40222588","9.488221","stand up","1"
"13960678663038","3","-0.33518824","0.40462008","9.488221","stand up","1"
"13960698621534","3","-0.33039984","0.39264908","9.49301","stand up","1"
"13960718580030","3","-0.33039984","0.40222588","9.488221","stand up","1"
"13960738538527","3","-0.33039984","0.39504328","9.49301","stand up","1"
"13960758497023","3","-0.33518824","0.39983168","9.481039","stand up","1"
"13960778455519","3","-0.32561144","0.40462008","9.490616","stand up","1"
"13960798414015","3","-0.33039984","0.41180268","9.490616","stand up","1"
"13960818403029","3","-0.33997664","0.39025488","9.488221","stand up","1"
"13960838361525","3","-0.32561144","0.39743748","9.488221","stand up","1"
"13960858320021","3","-0.33039984","0.40222588","9.488221","stand up","1"
"13960878309034","3","-0.33039984","0.39504328","9.500193","stand up","1"
"13960898267530","3","-0.33039984","0.40222588","9.483433","stand up","1"
"13960918226027","3","-0.3184288","0.40701428","9.49301","stand up","1"
"13960938184523","3","-0.32561144","0.39504328","9.488221","stand up","1"
"13960958143019","3","-0.33039984","0.39504328","9.485827","stand up","1"
"13960978101515","3","-0.3184288","0.39983168","9.507375","stand up","1"
"13961018008918","3","-0.33518824","0.40462008","9.485827","stand up","1"
"13961037967414","3","-0.33039984","0.39983168","9.473856","none","2"
"13961057925910","3","-0.32561144","0.40222588","9.488221","none","2"
"13961077884406","3","-0.32561144","0.39504328","9.497798","none","2"
"13961097842902","3","-0.32321724","0.39025488","9.49301","none","2"
"13961117770881","3","-0.32561144","0.39743748","9.478644","none","2"
"13961137759894","3","-0.33039984","0.40222588","9.481039","none","2"
"13961157718390","3","-0.33039984","0.40462008","9.481039","none","2"
"13961177676887","3","-0.33518824","0.39983168","9.495404","none","2"
"13961197635383","3","-0.32321724","0.39504328","9.488221","none","2"
"13961217593879","3","-0.32561144","0.3854665","9.500193","none","2"
"13961237552375","3","-0.32800564","0.39264908","9.476251","none","2"
"13961257510871","3","-0.32561144","0.40462008","9.483433","none","2"
"13961277438849","3","-0.32561144","0.39264908","9.483433","none","2"
"13961297427863","3","-0.32561144","0.40940848","9.49301","none","2"
"13961317386359","3","-0.32561144","0.3878607","9.497798","none","2"
"13961337375373","3","-0.3184288","0.39264908","9.49301","none","2"
"13961357303351","3","-0.32800564","0.39743748","9.490616","none","2"
"13961377292365","3","-0.32561144","0.39743748","9.483433","none","2"
"13961397250861","3","-0.33758244","0.40701428","9.478644","none","2"
"13961417209357","3","-0.32800564","0.39983168","9.500193","none","2"
"13961437167853","3","-0.32561144","0.40222588","9.483433","none","2"
"13961457126349","3","-0.3184288","0.39743748","9.485827","none","2"
"13961477084845","3","-0.33518824","0.39264908","9.490616","none","2"
"13961497043342","3","-0.33039984","0.39983168","9.485827","none","2"
"13961517032355","3","-0.33039984","0.40462008","9.478644","none","2"
"13961536990851","3","-0.32321724","0.40462008","9.476251","none","2"
"13961556949347","3","-0.3184288","0.41180268","9.485827","none","2"
"13961576907844","3","-0.3184288","0.39743748","9.502586","none","2"
"13961596866340","3","-0.32561144","0.39264908","9.483433","none","2"
"13961616824836","3","-0.32561144","0.39504328","9.476251","none","2"
"13961636783332","3","-0.32800564","0.39743748","9.488221","none","2"
"13961656772345","3","-0.32800564","0.39983168","9.483433","none","2"
"13961676730842","3","-0.33758244","0.39264908","9.495404","none","2"
"13961696689338","3","-0.33039984","0.39025488","9.497798","none","2"
"13961716647834","3","-0.32561144","0.39504328","9.488221","none","2"
"13961736606330","3","-0.33279404","0.39983168","9.481039","none","2"
"13961756564826","3","-0.33039984","0.39504328","9.478644","none","2"
"13961776523322","3","-0.32561144","0.40222588","9.481039","none","2"
"13961796481818","3","-0.33039984","0.39743748","9.497798","none","2"
"13961816440314","3","-0.32800564","0.39743748","9.502586","none","2"
"13961836429328","3","-0.33039984","0.39983168","9.495404","none","2"
"13961856387824","3","-0.33518824","0.39264908","9.495404","none","2"
"13961876315803","3","-0.3184288","0.39983168","9.476251","none","2"
"13961896304816","3","-0.31603462","0.39264908","9.478644","none","2"
"13961916263312","3","-0.33039984","0.39983168","9.485827","none","2"
"13961936221808","3","-0.32561144","0.39504328","9.490616","none","2"
