"Timestamp","Accuracy","Acceleration X","Acceleration Y","Acceleration Z","Label","Cycle"
"14354306247823","3","0.019153614","0.49320555","9.7084875","none","0"
"14354326206319","3","-0.49799395","0.32561144","9.102755","none","1"
"14354346164815","3","-0.20829555","0.29209262","9.928755","none","1"
"14354366123311","3","-0.33758244","0.37588966","9.203311","none","1"
"14354386081807","3","-0.33039984","0.2873042","9.576807","none","1"
"14354406040303","3","-0.2873042","0.31603462","9.495404","none","1"
"14354425998799","3","-0.32561144","0.32800564","9.437943","none","1"
"14354445957295","3","-0.29688102","0.30645782","9.500193","none","1"
"14354465915791","3","-0.29448682","0.320823","9.459491","none","1"
"14354485874288","3","-0.29927522","0.3184288","9.478644","none","1"
"14354505832784","3","-0.3184288","0.3184288","9.466674","none","1"
"14354525791280","3","-0.30885202","0.31603462","9.483433","none","1"
"14354545749776","3","-0.30166942","0.32561144","9.471462","none","1"
"14354565738789","3","-0.30166942","0.31603462","9.466674","none","1"
"14354585666768","3","-0.30166942","0.32321724","9.461885","none","1"
"14354605625264","3","-0.30885202","0.31364042","9.461885","none","1"
"14354625583760","3","-0.31364042","0.3184288","9.483433","none","1"
"14354645542256","3","-0.30885202","0.33039984","9.473856","none","1"
"14354665500752","3","-0.31364042","0.32321724","9.473856","none","1"
"14354685459248","3","-0.29927522","0.31603462","9.485827","none","1"
"14354705417745","3","-0.31603462","0.31603462","9.459491","none","1"
"14354725376241","3","-0.3184288","0.3184288","9.481039","none","1"
"14354745334737","3","-0.31124622","0.3184288","9.466674","none","1"
"14354765293233","3","-0.31124622","0.33279404","9.473856","none","1"
"14354785251729","3","-0.31124622","0.320823","9.476251","none","1"
"14354805210225","3","-0.30406362","0.320823","9.466674","none","1"
"14354825168721","3","-0.30166942","0.32561144","9.459491","none","1"
"14354845127217","3","-0.31603462","0.3184288","9.461885","none","1"
"14354865085713","3","-0.31124622","0.3184288","9.478644","none","1"
"14354885044209","3","-0.30885202","0.31603462","9.473856","none","1"
"14354905002705","3","-0.30406362","0.30885202","9.469068","none","1"
"14354924961202","3","-0.31124622","0.30406362","9.461885","none","1"
"14354944950215","3","-0.30166942","0.3184288","9.471462","none","1"
"14354964908711","3","-0.30885202","0.32321724","9.476251","none","1"
"14354984867207","3","-0.30406362","0.32321724","9.481039","none","1"
"14355004825704","3","-0.30406362","0.320823","9.473856","none","1"
"14355024784200","3","-0.30885202","0.31364042","9.473856","none","1"
"14355044742696","3","-0.30166942","0.3184288","9.469068","none","1"
"14355064670674","3","-0.30645782","0.31603462","9.466674","none","1"
"14355084629170","3","-0.31603462","0.31124622","9.473856","none","1"
"14355104587666","3","-0.31364042","0.32321724","9.473856","none","1"
"14355124546163","3","-0.31124622","0.32321724","9.481039","none","1"
"14355144474141","3","-0.30406362","0.32321724","9.461885","none","1"
"14355164463155","3","-0.30645782","0.3184288","9.452309","none","1"
"14355184452168","3","-0.30406362","0.3184288","9.473856","none","1"
"14355204441182","3","-0.30166942","0.3184288","9.471462","none","1"
"14355224369161","3","-0.31124622","0.30885202","9.49301","none","1"
"14355244358174","3","-0.31364042","0.31603462","9.473856","none","1"
"14355264316670","3","-0.30406362","0.31124622","9.469068","none","1"
"14355284305684","3","-0.29927522","0.3184288","9.478644","none","1"
"14355304233663","3","-0.29448682","0.320823","9.469068","none","1"
"14355324222676","3","-0.30885202","0.32321724","9.466674","none","1"
"14355344211690","3","-0.30166942","0.3184288","9.481039","none","1"
"14355364170186","3","-0.30645782","0.32561144","9.473856","none","1"
"14355384128682","3","-0.29688102","0.31124622","9.483433","none","1"
"14355404087178","3","-0.30885202","0.31364042","9.452309","none","1"
"14355424045674","3","-0.30166942","0.32321724","9.469068","none","1"
"14355444004170","3","-0.31364042","0.30885202","9.481039","none","1"
"14355463962666","3","-0.30406362","0.3184288","9.478644","none","1"
"14355483921163","3","-0.30645782","0.32561144","9.471462","none","1"
"14355503879659","3","-0.30885202","0.30885202","9.461885","none","1"
"14355523838155","3","-0.30885202","0.3184288","9.461885","none","1"
"14355543796651","3","-0.31124622","0.31603462","9.473856","none","1"
"14355563785664","3","-0.30645782","0.32561144","9.473856","none","1"
"14355583774678","3","-0.30885202","0.31603462","9.473856","none","1"
"14355603733174","3","-0.30166942","0.31124622","9.478644","none","1"
"14355623722188","3","-0.31124622","0.31603462","9.461885","none","1"
"14355643680684","3","-0.29927522","0.320823","9.473856","none","1"
"14355663639180","3","-0.30166942","0.31124622","9.469068","none","1"
"14355683597676","3","-0.30406362","0.320823","9.481039","none","1"
"14355703556172","3","-0.30406362","0.31364042","9.483433","none","1"
"14355723514668","3","-0.30166942","0.31603462","9.476251","none","1"
"14355743442647","3","-0.31124622","0.30885202","9.461885","none","1"
"14355763401143","3","-0.30406362","0.3184288","9.461885","none","1"
"14355783359639","3","-0.31124622","0.31124622","9.473856","none","1"
"14355803318135","3","-0.30406362","0.320823","9.481039","none","1"
"14355823276631","3","-0.30885202","0.3184288","9.471462","none","1"
"14355843235127","3","-0.30406362","0.32321724","9.454702","none","1"
"14355863224141","3","-0.31364042","0.32321724","9.464279","none","1"
"14355883182637","3","-0.30406362","0.31603462","9.466674","none","1"
"14355903171651","3","-0.30645782","0.3184288","9.473856","none","1"
"14355923130147","3","-0.31603462","0.3184288","9.481039","none","1"
"14355943088643","3","-0.31364042","0.3184288","9.471462","none","1"
"14355963047139","3","-0.30406362","0.32321724","9.469068","none","1"
"14355983005635","3","-0.30645782","0.32321724","9.461885","none","1"
"14356002964131","3","-0.30645782","0.31603462","9.481039","none","1"
"14356022922627","3","-0.30406362","0.31364042","9.466674","none","1"
"14356042881123","3","-0.30645782","0.32561144","9.469068","none","1"
"14356062839620","3","-0.30166942","0.3184288","9.473856","none","1"
"14356082828633","3","-0.30645782","0.320823","9.471462","none","1"
"14356102787129","3","-0.30885202","0.3184288","9.466674","none","1"
"14356122745625","3","-0.30885202","0.31124622","9.478644","none","1"
"14356142704121","3","-0.30406362","0.31124622","9.466674","none","1"
"14356162662618","3","-0.30885202","0.31603462","9.478644","none","1"
"14356182621114","3","-0.30885202","0.30885202","9.485827","none","1"
"14356202579610","3","-0.29688102","0.31603462","9.476251","none","1"
"14356222538106","3","-0.30645782","0.31603462","9.464279","none","1"
"14356242496602","3","-0.30885202","0.31124622","9.464279","none","1"
"14356262455098","3","-0.31364042","0.33039984","9.471462","none","1"
"14356282413594","3","-0.31124622","0.320823","9.473856","none","1"
"14356302372090","3","-0.31364042","0.31603462","9.478644","none","1"
"14356322330586","3","-0.30406362","0.31124622","9.469068","none","1"
"14356342289082","3","-0.31364042","0.3184288","9.459491","none","1"
"14356362247579","3","-0.30406362","0.30885202","9.471462","none","1"
"14356382206075","3","-0.30885202","0.3184288","9.471462","none","1"
"14356402164571","3","-0.30406362","0.31603462","9.483433","none","1"
"14356422123067","3","-0.30645782","0.3184288","9.466674","none","1"
"14356442051045","3","-0.31364042","0.30645782","9.466674","none","1"
"14356462070577","3","-0.30406362","0.32561144","9.459491","none","1"
"14356482059590","3","-0.30406362","0.31603462","9.469068","none","1"
"14356501987569","3","-0.30645782","0.320823","9.478644","none","1"
"14356521976582","3","-0.30406362","0.320823","9.469068","none","1"
"14356541935079","3","-0.30406362","0.31603462","9.469068","none","1"
"14356561924092","3","-0.30406362","0.31364042","9.469068","none","1"
"14356581882588","3","-0.30166942","0.3184288","9.469068","none","1"
"14356601841084","3","-0.31124622","0.32321724","9.471462","none","1"
"14356621799580","3","-0.31124622","0.320823","9.464279","none","1"
"14356641727559","3","-0.31124622","0.320823","9.473856","none","1"
"14356661716573","3","-0.30166942","0.32800564","9.466674","none","1"
"14356681675069","3","-0.31124622","0.30645782","9.473856","none","1"
"14356701633565","3","-0.30645782","0.320823","9.473856","none","1"
"14356721592061","3","-0.30885202","0.3184288","9.478644","none","1"
"14356741550557","3","-0.31364042","0.3184288","9.476251","none","1"
"14356761509053","3","-0.31364042","0.32800564","9.476251","none","1"
"14356781467549","3","-0.30645782","0.320823","9.478644","none","1"
"14356801456563","3","-0.31364042","0.33039984","9.466674","none","1"
"14356821384541","3","-0.30885202","0.31364042","9.471462","none","1"
"14356841373555","3","-0.30166942","0.32561144","9.464279","none","1"
"14356861332051","3","-0.30885202","0.31364042","9.478644","none","1"
"14356881290547","3","-0.30885202","0.31364042","9.469068","none","1"
"14356901249043","3","-0.30645782","0.32561144","9.473856","none","1"
"14356921207539","3","-0.31124622","0.31603462","9.459491","none","1"
"14356941166036","3","-0.31124622","0.3184288","9.464279","none","1"
"14356961124532","3","-0.31603462","0.32321724","9.469068","none","1"
"14356981083028","3","-0.30645782","0.30885202","9.466674","none","1"
"14357001041524","3","-0.30406362","0.3184288","9.461885","none","1"
"14357021000020","3","-0.30406362","0.31364042","9.476251","none","1"
"14357040958516","3","-0.30885202","0.320823","9.473856","none","1"
"14357060886495","3","-0.30406362","0.31603462","9.471462","none","1"
"14357080844991","3","-0.31124622","0.31364042","9.471462","none","1"
"14357100803487","3","-0.31124622","0.31124622","9.464279","none","1"
"14357120761983","3","-0.3184288","0.31603462","9.471462","none","1"
"14357140720479","3","-0.31124622","0.31603462","9.476251","none","1"
"14357160678975","3","-0.30885202","0.3184288","9.466674","none","1"
"14357180637471","3","-0.30885202","0.31364042","9.473856","none","1"
"14357200595967","3","-0.31124622","0.30885202","9.466674","none","1"
"14357220554463","3","-0.31603462","0.31124622","9.469068","none","1"
"14357240512959","3","-0.31364042","0.30885202","9.478644","none","1"
"14357260471455","3","-0.30645782","0.31124622","9.473856","none","1"
"14357280429952","3","-0.31124622","0.31364042","9.478644","none","1"
"14357300388448","3","-0.30645782","0.32321724","9.471462","none","1"
"14357320346944","3","-0.30166942","0.32561144","9.478644","none","1"
"14357340305440","3","-0.30166942","0.32561144","9.483433","none","1"
"14357360263936","3","-0.30406362","0.320823","9.476251","none","1"
"14357380222432","3","-0.31364042","0.31603462","9.471462","none","1"
"14357400180928","3","-0.30645782","0.31124622","9.469068","none","1"
"14357420139424","3","-0.30406362","0.31603462","9.476251","none","1"
"14357440097920","3","-0.30645782","0.31124622","9.471462","none","1"
"14357460056416","3","-0.31603462","0.30885202","9.478644","none","1"
"14357480075948","3","-0.30645782","0.31124622","9.471462","none","1"
"14357500003926","3","-0.30885202","0.31124622","9.476251","none","1"
"14357520023457","3","-0.30645782","0.32321724","9.471462","none","1"
"14357539981954","3","-0.30166942","0.3184288","9.478644","none","1"
"14357559940450","3","-0.30885202","0.30885202","9.476251","none","1"
"14357579898946","3","-0.30885202","0.31603462","9.478644","none","1"
"14357599857442","3","-0.31603462","0.31124622","9.481039","none","1"
"14357619815938","3","-0.30645782","0.320823","9.478644","none","1"
"14357639774434","3","-0.31124622","0.31603462","9.478644","none","1"
"14357659763448","3","-0.29688102","0.30885202","9.481039","none","1"
"14357679721944","3","-0.31364042","0.320823","9.466674","none","1"
"14357699680440","3","-0.30406362","0.31364042","9.481039","none","1"
"14357719638936","3","-0.30166942","0.320823","9.473856","none","1"
"14357739597432","3","-0.30645782","0.31124622","9.483433","none","1"
"14357759586446","3","-0.29927522","0.31124622","9.478644","none","1"
"14357779514424","3","-0.30406362","0.3184288","9.471462","none","1"
"14357799472920","3","-0.30406362","0.3184288","9.481039","none","1"
"14357819431416","3","-0.30885202","0.30645782","9.473856","none","1"
"14357839389913","3","-0.30885202","0.3184288","9.478644","none","1"
"14357859348409","3","-0.31364042","0.31364042","9.485827","none","1"
"14357879306905","3","-0.30885202","0.30885202","9.466674","none","1"
"14357899265401","3","-0.29927522","0.32800564","9.471462","none","1"
"14357919223897","3","-0.30885202","0.31603462","9.471462","none","1"
"14357939182393","3","-0.31603462","0.30645782","9.481039","none","1"
"14357959140889","3","-0.30885202","0.31603462","9.488221","none","1"
"14357979099385","3","-0.30406362","0.3184288","9.469068","none","1"
"14357999057881","3","-0.30406362","0.31364042","9.464279","none","1"
"14358019016377","3","-0.30885202","0.32321724","9.473856","none","1"
"14358038974873","3","-0.31603462","0.31364042","9.464279","none","1"
"14358058933370","3","-0.3184288","0.32321724","9.478644","none","1"
"14358078891866","3","-0.30645782","0.30166942","9.473856","none","1"
"14358098850362","3","-0.30406362","0.31364042","9.464279","none","1"
"14358118808858","3","-0.30166942","0.31603462","9.461885","none","1"
"14358138767354","3","-0.29927522","0.3184288","9.473856","none","1"
"14358158725850","3","-0.30885202","0.30885202","9.471462","none","1"
"14358178684346","3","-0.3184288","0.30645782","9.476251","none","1"
"14358198642842","3","-0.31603462","0.31364042","9.483433","none","1"
"14358218601338","3","-0.31124622","0.32561144","9.478644","none","1"
"14358238529317","3","-0.29927522","0.3184288","9.461885","none","1"
"14358258487813","3","-0.30166942","0.31603462","9.457097","none","1"
"14358278446309","3","-0.30406362","0.31364042","9.471462","sit down","1"
"14358298404805","3","-0.31603462","0.32321724","9.471462","sit down","1"
"14358318363301","3","-0.30406362","0.32321724","9.473856","sit down","1"
"14358338321797","3","-0.30645782","0.30885202","9.473856","sit down","1"
"14358358280293","3","-0.30406362","0.3184288","9.464279","sit down","1"
"14358378238789","3","-0.30885202","0.320823","9.471462","sit down","1"
"14358398197286","3","-0.30166942","0.31603462","9.469068","sit down","1"
"14358418186299","3","-0.3184288","0.31364042","9.476251","sit down","1"
"14358438144795","3","-0.29927522","0.3184288","9.488221","sit down","1"
"14358458103291","3","-0.30166942","0.32800564","9.469068","sit down","1"
"14358478061788","3","-0.30885202","0.31124622","9.466674","sit down","1"
"14358498020284","3","-0.30406362","0.31603462","9.471462","sit down","1"
"14358517978780","3","-0.30885202","0.30885202","9.464279","sit down","1"
"14358537937276","3","-0.31603462","0.31603462","9.471462","sit down","1"
"14358557895772","3","-0.30885202","0.32321724","9.478644","sit down","1"
"14358577854268","3","-0.31124622","0.30406362","9.469068","sit down","1"
"14358597843282","3","-0.29927522","0.30885202","9.478644","sit down","1"
"14358617771260","3","-0.30645782","0.30406362","9.461885","sit down","1"
"14358637760274","3","-0.31603462","0.31603462","9.473856","sit down","1"
"14358657718770","3","-0.3184288","0.32321724","9.471462","sit down","1"
"14358677707784","3","-0.30885202","0.32561144","9.485827","sit down","1"
"14358697666280","3","-0.31603462","0.31603462","9.485827","sit down","1"
"14358717624776","3","-0.30406362","0.33039984","9.466674","sit down","1"
"14358737583272","3","-0.29448682","0.30885202","9.457097","sit down","1"
"14358757541768","3","-0.31603462","0.32321724","9.464279","sit down","1"
"14358777500264","3","-0.30645782","0.3184288","9.478644","sit down","1"
"14358797458760","3","-0.31364042","0.32321724","9.481039","sit down","1"
"14358817417256","3","-0.30166942","0.3184288","9.481039","sit down","1"
"14358837375752","3","-0.30645782","0.31603462","9.459491","sit down","1"
"14358857334248","3","-0.30406362","0.32321724","9.469068","sit down","1"
"14358877292745","3","-0.30645782","0.3184288","9.469068","sit down","1"
"14358897251241","3","-0.31364042","0.31124622","9.473856","sit down","1"
"14358917209737","3","-0.31364042","0.31124622","9.469068","sit down","1"
"14358937168233","3","-0.31124622","0.3184288","9.471462","sit down","1"
"14358957126729","3","-0.30406362","0.32561144","9.471462","sit down","1"
"14358977085225","3","-0.31124622","0.31364042","9.464279","sit down","1"
"14358997043721","3","-0.30885202","0.31364042","9.464279","sit down","1"
"14359017002217","3","-0.31124622","0.32321724","9.469068","sit down","1"
"14359036960713","3","-0.30406362","0.31364042","9.476251","sit down","1"
"14359056919209","3","-0.31364042","0.320823","9.478644","sit down","1"
"14359076877705","3","-0.30406362","0.31603462","9.464279","sit down","1"
"14359096836202","3","-0.30166942","0.30645782","9.469068","sit down","1"
"14359116825215","3","-0.31124622","0.30885202","9.459491","sit down","1"
"14359136783711","3","-0.31603462","0.320823","9.471462","sit down","1"
"14359156742207","3","-0.30645782","0.32321724","9.473856","sit down","1"
"14359176700704","3","-0.31124622","0.3184288","9.469068","sit down","1"
"14359196659200","3","-0.30885202","0.31603462","9.473856","sit down","1"
"14359216648213","3","-0.30406362","0.30885202","9.466674","sit down","1"
"14359236606709","3","-0.30645782","0.31603462","9.473856","sit down","1"
"14359256565205","3","-0.30885202","0.31364042","9.473856","sit down","1"
"14359276523702","3","-0.31124622","0.3184288","9.466674","sit down","1"
"14359296482198","3","-0.30406362","0.30885202","9.473856","sit down","1"
"14359316440694","3","-0.30885202","0.30645782","9.488221","sit down","1"
"14359336399190","3","-0.30885202","0.3184288","9.476251","sit down","1"
"14359356357686","3","-0.31124622","0.31364042","9.464279","sit down","1"
"14359376316182","3","-0.30406362","0.320823","9.464279","sit down","1"
"14359396274678","3","-0.30885202","0.31364042","9.461885","sit down","1"
"14359416233174","3","-0.32321724","0.31603462","9.476251","sit down","1"
"14359436191670","3","-0.31364042","0.31364042","9.464279","sit down","1"
"14359456150166","3","-0.29448682","0.2825158","9.495404","sit down","1"
"14359476108663","3","-0.30885202","0.2681506","9.500193","sit down","1"
"14359496097676","3","-0.30166942","0.22744916","9.485827","sit down","1"
"14359516025655","3","-0.25857377","0.3878607","9.457097","sit down","1"
"14359536014668","3","-0.25617957","0.22505496","9.476251","sit down","1"
"14359555973164","3","-0.18914193","0.22744916","9.502586","sit down","1"
"14359575962178","3","-0.33518824","0.50517654","9.232041","sit down","1"
"14359595920674","3","-0.12689269","0.34715924","9.7803135","sit down","1"
"14359615879170","3","0.37588966","0.6464345","9.188946","sit down","1"
"14359635837666","3","-0.3184288","0.320823","9.105149","sit down","1"
"14359655796163","3","-0.29209262","0.48602295","9.540894","sit down","1"
"14359675754659","3","-0.4309563","0.32321724","9.440337","sit down","1"
"14359695682637","3","-0.32321724","0.30645782","9.516952","sit down","1"
"14359715641133","3","-0.30885202","0.32321724","9.404425","sit down","1"
"14359735599629","3","-0.30406362","0.34237084","9.485827","sit down","1"
"14359755558125","3","-0.32561144","0.32800564","9.466674","sit down","1"
"14359775486104","3","-0.33518824","0.32561144","9.483433","sit down","1"
"14359795475118","3","-0.33039984","0.32800564","9.452309","sit down","1"
"14359815464131","3","-0.31124622","0.33039984","9.469068","sit down","1"
"14359835422627","3","-0.31364042","0.34237084","9.478644","sit down","1"
"14359855411641","3","-0.30645782","0.35194764","9.457097","sit down","1"
"14359875400655","3","-0.3184288","0.34715924","9.473856","sit down","1"
"14359895328633","3","-0.30406362","0.35194764","9.473856","sit down","1"
"14359915317647","3","-0.31364042","0.36152446","9.461885","sit down","1"
"14359935306661","3","-0.29448682","0.35434186","9.483433","sit down","1"
"14359955265157","3","-0.31124622","0.36631286","9.466674","sit down","1"
"14359975223653","3","-0.31124622","0.37588966","9.481039","sit down","1"
"14359995212666","3","-0.30885202","0.37349546","9.461885","sit down","1"
"14360015171163","3","-0.3184288","0.36152446","9.473856","sit down","1"
"14360035129659","3","-0.32321724","0.35434186","9.476251","sit down","1"
"14360055088155","3","-0.32321724","0.35194764","9.464279","sit down","1"
"14360075046651","3","-0.32321724","0.34476504","9.469068","sit down","1"
"14360094974629","3","-0.32800564","0.35673606","9.471462","sit down","1"
"14360114933125","3","-0.32321724","0.34476504","9.461885","sit down","1"
"14360134922139","3","-0.32321724","0.34715924","9.469068","sit down","1"
"14360154880635","3","-0.32800564","0.34476504","9.457097","sit down","1"
"14360174839131","3","-0.31364042","0.34715924","9.478644","sit down","1"
"14360194797627","3","-0.31603462","0.33518824","9.452309","sit down","1"
"14360214786641","3","-0.31124622","0.33997664","9.471462","sit down","1"
"14360234775655","3","-0.31603462","0.35913026","9.469068","sit down","1"
"14360254734151","3","-0.33758244","0.39983168","9.473856","sit down","1"
"14360274692647","3","-0.34715924","0.34955344","9.49301","sit down","1"
"14360294681661","3","-0.3184288","0.35194764","9.466674","sit down","1"
"14360314640157","3","-0.32561144","0.36631286","9.466674","sit down","1"
"14360334568135","3","-0.30406362","0.33518824","9.488221","sit down","1"
"14360354526631","3","-0.31603462","0.35673606","9.469068","sit down","1"
"14360374515645","3","-0.3184288","0.34237084","9.476251","sit down","1"
"14360394504659","3","-0.3184288","0.32800564","9.452309","sit down","1"
"14360414493672","3","-0.3184288","0.34237084","9.476251","sit down","1"
"14360434452168","3","-0.31603462","0.34476504","9.469068","sit down","1"
"14360454410664","3","-0.32321724","0.35673606","9.488221","sit down","1"
"14360474399678","3","-0.31364042","0.35434186","9.469068","sit down","1"
"14360494358174","3","-0.30645782","0.36391866","9.471462","sit down","1"
"14360514316670","3","-0.3184288","0.36870706","9.471462","sit down","1"
"14360534275166","3","-0.30885202","0.35673606","9.464279","sit down","1"
"14360554233663","3","-0.32321724","0.35194764","9.466674","sit down","1"
"14360574192159","3","-0.31124622","0.34715924","9.469068","sit down","1"
"14360594150655","3","-0.31364042","0.34955344","9.476251","sit down","1"
"14360614139668","3","-0.31603462","0.34955344","9.469068","sit down","1"
"14360634067647","3","-0.30645782","0.35194764","9.466674","sit down","1"
"14360654056661","3","-0.320823","0.33518824","9.469068","sit down","1"
"14360674015157","3","-0.31124622","0.34476504","9.476251","sit down","1"
"14360693973653","3","-0.32321724","0.34955344","9.476251","sit down","1"
"14360713932149","3","-0.3184288","0.35673606","9.469068","sit down","1"
"14360733860127","3","-0.320823","0.35194764","9.481039","sit down","1"
"14360753818623","3","-0.31124622","0.35673606","9.466674","sit down","1"
"14360773746602","3","-0.30885202","0.35434186","9.469068","sit down","1"
"14360793705098","3","-0.31124622","0.33758244","9.469068","sit down","1"
"14360813663594","3","-0.31124622","0.34476504","9.461885","sit down","1"
"14360833652608","3","-0.320823","0.35194764","9.466674","sit down","1"
"14360853611104","3","-0.3184288","0.35673606","9.476251","sit down","1"
"14360873569600","3","-0.320823","0.34476504","9.464279","sit down","1"
"14360893528096","3","-0.31124622","0.35913026","9.469068","sit down","1"
"14360913486592","3","-0.31603462","0.34955344","9.459491","sit down","1"
"14360933445088","3","-0.31124622","0.35194764","9.473856","sit down","1"
"14360953434102","3","-0.31124622","0.34955344","9.471462","sit down","1"
"14360973423116","3","-0.3184288","0.34237084","9.471462","sit down","1"
"14360993381612","3","-0.320823","0.34715924","9.476251","sit down","1"
"14361013340108","3","-0.320823","0.34237084","9.461885","sit down","1"
"14361033298604","3","-0.320823","0.36631286","9.459491","sit down","1"
"14361053257100","3","-0.30645782","0.34237084","9.471462","sit down","1"
"14361073215596","3","-0.30645782","0.34955344","9.466674","sit down","1"
"14361093174092","3","-0.32321724","0.35673606","9.471462","sit down","1"
"14361113132588","3","-0.31603462","0.34715924","9.466674","sit down","1"
"14361133091084","3","-0.3184288","0.35434186","9.466674","sit down","1"
"14361153049580","3","-0.30406362","0.34476504","9.459491","sit down","1"
"14361173008077","3","-0.31124622","0.33758244","9.469068","sit down","1"
"14361192966573","3","-0.31124622","0.35194764","9.469068","sit down","1"
"14361212925069","3","-0.31364042","0.34955344","9.478644","sit down","1"
"14361232883565","3","-0.32321724","0.35194764","9.473856","sit down","1"
"14361252842061","3","-0.31124622","0.35434186","9.481039","sit down","1"
"14361272831075","3","-0.30885202","0.34237084","9.466674","sit down","1"
"14361292660060","3","-0.31603462","0.34476504","9.457097","sit down","1"
"14361312618556","3","-0.31364042","0.34955344","9.469068","sit down","1"
"14361332577052","3","-0.320823","0.34476504","9.466674","sit down","1"
"14361352535548","3","-0.31603462","0.35194764","9.485827","sit down","1"
"14361372494045","3","-0.320823","0.35194764","9.459491","sit down","1"
"14361392483058","3","-0.31364042","0.34476504","9.464279","sit down","1"
"14361412472072","3","-0.30406362","0.34476504","9.471462","sit down","1"
"14361432461086","3","-0.30885202","0.35673606","9.476251","sit down","1"
"14361452419582","3","-0.320823","0.34715924","9.478644","sit down","1"
"14361472408595","3","-0.3184288","0.34715924","9.478644","sit down","1"
"14361492367091","3","-0.32800564","0.34715924","9.473856","sit down","1"
"14361512325587","3","-0.30885202","0.34955344","9.461885","sit down","1"
"14361532314601","3","-0.30166942","0.35434186","9.473856","sit down","1"
"14361552273097","3","-0.30885202","0.33758244","9.469068","sit down","1"
"14361572231593","3","-0.3184288","0.34955344","9.478644","sit down","1"
"14361592220607","3","-0.3184288","0.35194764","9.481039","sit down","1"
"14361612179103","3","-0.31364042","0.35673606","9.476251","sit down","1"
"14361632168117","3","-0.31124622","0.35194764","9.461885","sit down","1"
"14361652126613","3","-0.320823","0.34476504","9.483433","sit down","1"
"14361672085109","3","-0.3184288","0.35434186","9.471462","sit down","1"
"14361692013087","3","-0.3184288","0.34715924","9.473856","sit down","1"
"14361711971584","3","-0.3184288","0.34955344","9.481039","sit down","1"
"14361731930080","3","-0.31603462","0.34715924","9.469068","sit down","1"
"14361751888576","3","-0.31603462","0.35194764","9.464279","sit down","1"
"14361771816554","3","-0.30645782","0.34476504","9.464279","sit down","1"
"14361791805568","3","-0.31603462","0.35434186","9.483433","sit down","1"
"14361811764064","3","-0.32561144","0.35434186","9.476251","sit down","1"
"14361831722560","3","-0.3184288","0.35673606","9.473856","sit down","1"
"14361851681056","3","-0.31364042","0.34237084","9.471462","sit down","1"
"14361871639552","3","-0.31124622","0.34476504","9.461885","sit down","1"
"14361891598048","3","-0.31364042","0.34955344","9.469068","sit down","1"
"14361911526027","3","-0.31603462","0.35194764","9.473856","sit down","1"
"14361931515041","3","-0.32561144","0.34955344","9.469068","sit down","1"
"14361951504054","3","-0.320823","0.34476504","9.478644","sit down","1"
"14361971493068","3","-0.31124622","0.35194764","9.473856","sit down","1"
"14361991451564","3","-0.30645782","0.34237084","9.459491","sit down","1"
"14362011410060","3","-0.31603462","0.34476504","9.461885","sit down","1"
"14362031368556","3","-0.31603462","0.35194764","9.461885","sit down","1"
"14362051357570","3","-0.32800564","0.34955344","9.471462","sit down","1"
"14362071316066","3","-0.3184288","0.34955344","9.476251","sit down","1"
"14362091274562","3","-0.31364042","0.34476504","9.464279","sit down","1"
"14362111233058","3","-0.31124622","0.34715924","9.466674","sit down","1"
"14362131191554","3","-0.320823","0.35434186","9.469068","sit down","1"
"14362151150050","3","-0.33518824","0.35673606","9.471462","sit down","1"
"14362171108546","3","-0.31603462","0.34955344","9.461885","sit down","1"
"14362191067043","3","-0.31124622","0.33997664","9.464279","sit down","1"
"14362211025539","3","-0.320823","0.34715924","9.466674","sit down","1"
"14362230984035","3","-0.31603462","0.35434186","9.464279","sit down","1"
"14362250942531","3","-0.31603462","0.35194764","9.471462","sit down","1"
"14362270901027","3","-0.320823","0.35434186","9.469068","lay down","1"
"14362290859523","3","-0.31124622","0.34955344","9.476251","lay down","1"
"14362310818019","3","-0.31603462","0.34237084","9.471462","lay down","1"
"14362330807033","3","-0.32321724","0.34955344","9.464279","lay down","1"
"14362350765529","3","-0.3184288","0.35194764","9.457097","lay down","1"
"14362370724025","3","-0.3184288","0.35434186","9.469068","lay down","1"
"14362390682521","3","-0.32561144","0.35673606","9.473856","lay down","1"
"14362410641017","3","-0.31603462","0.33518824","9.476251","lay down","1"
"14362430630031","3","-0.3184288","0.34715924","9.461885","lay down","1"
"14362450588527","3","-0.30885202","0.33758244","9.457097","lay down","1"
"14362470547023","3","-0.30885202","0.34955344","9.469068","lay down","1"
"14362490505519","3","-0.30645782","0.34715924","9.466674","lay down","1"
"14362510464015","3","-0.31124622","0.33997664","9.466674","lay down","1"
"14362530422511","3","-0.31124622","0.34955344","9.473856","lay down","1"
"14362550381007","3","-0.31364042","0.33997664","9.473856","lay down","1"
"14362570339503","3","-0.30885202","0.34476504","9.44752","lay down","1"
"14362590328517","3","-0.31364042","0.35194764","9.461885","lay down","1"
"14362610287013","3","-0.31124622","0.33997664","9.478644","lay down","1"
"14362630245509","3","-0.33039984","0.34476504","9.457097","lay down","1"
"14362650204005","3","-0.32561144","0.34476504","9.483433","lay down","1"
"14362670162502","3","-0.3184288","0.36870706","9.459491","lay down","1"
"14362690120998","3","-0.31364042","0.33518824","9.488221","lay down","1"
"14362710079494","3","-0.31364042","0.33997664","9.459491","lay down","1"
"14362730037990","3","-0.31124622","0.34955344","9.461885","lay down","1"
"14362749996486","3","-0.31364042","0.34955344","9.481039","lay down","1"
"14362769954982","3","-0.30645782","0.34476504","9.461885","lay down","1"
"14362789943996","3","-0.31364042","0.34715924","9.466674","lay down","1"
"14362809871974","3","-0.34476504","0.3184288","9.488221","lay down","1"
"14362829860988","3","-0.32561144","0.35194764","9.481039","lay down","1"
"14362849819484","3","-0.31603462","0.33758244","9.457097","lay down","1"
"14362869777980","3","-0.3184288","0.34715924","9.476251","lay down","1"
"14362889766994","3","-0.31364042","0.36391866","9.481039","lay down","1"
"14362909725490","3","-0.30885202","0.35673606","9.466674","lay down","1"
"14362929683986","3","-0.31603462","0.35434186","9.471462","lay down","1"
"14362949611964","3","-0.32321724","0.34715924","9.488221","lay down","1"
"14362969600978","3","-0.3184288","0.35913026","9.466674","lay down","1"
"14362989559474","3","-0.31124622","0.33758244","9.473856","lay down","1"
"14363009517970","3","-0.31603462","0.33758244","9.466674","lay down","1"
"14363029476466","3","-0.31124622","0.35194764","9.473856","lay down","1"
"14363049434962","3","-0.33518824","0.35913026","9.481039","lay down","1"
"14363069423976","3","-0.2896984","0.320823","9.495404","lay down","1"
"14363089412990","3","-0.3184288","0.34955344","9.459491","lay down","1"
"14363109402003","3","-0.31364042","0.35913026","9.452309","lay down","1"
"14363129391017","3","-0.34955344","0.40940848","9.49301","lay down","1"
"14363149349513","3","-0.2896984","0.37349546","9.536105","lay down","1"
"14363169308009","3","-0.2633622","0.39264908","9.423578","lay down","1"
"14363189266505","3","-0.29448682","0.35194764","9.437943","lay down","1"
"14363209225002","3","-0.31603462","0.35673606","9.449914","lay down","1"
"14363229183498","3","-0.29688102","0.34237084","9.454702","lay down","1"
"14363249141994","3","-0.33279404","0.33518824","9.442732","lay down","1"
"14363269069972","3","-0.3184288","0.31603462","9.497798","lay down","1"
"14363289058986","3","-0.31603462","0.34237084","9.469068","lay down","1"
"14363309048000","3","-0.33997664","0.36631286","9.476251","lay down","1"
"14363329006496","3","-0.32800564","0.33518824","9.540894","lay down","1"
"14363348964992","3","-0.25139117","0.39743748","9.485827","lay down","1"
"14363368923488","3","-0.2825158","0.38307226","9.469068","lay down","1"
"14363388881984","3","-0.28491","0.36631286","9.524135","lay down","1"
"14363408840480","3","-0.20111294","0.39983168","9.706094","lay down","1"
"14363428798976","3","-0.32800564","0.16759412","9.512163","lay down","1"
"14363448757472","3","-0.47405192","0.7637503","8.561666","lay down","1"
"14363468715968","3","-0.28491","0.2753332","10.04607","lay down","1"
"14363488674464","3","-0.35913026","0.50517654","9.303867","lay down","1"
"14363508632961","3","-0.31364042","0.4357447","9.440337","lay down","1"
"14363528591457","3","-0.35673606","0.37828386","9.461885","lay down","1"
"14363548519435","3","-0.31603462","0.39025488","9.466674","lay down","1"
"14363568508449","3","-0.32561144","0.37828386","9.490616","lay down","1"
"14363588497462","3","-0.33518824","0.3878607","9.507375","lay down","1"
"14363608455959","3","-0.31124622","0.3878607","9.469068","lay down","1"
"14363628414455","3","-0.32561144","0.3854665","9.495404","lay down","1"
"14363648372951","3","-0.31364042","0.40940848","9.44752","lay down","1"
"14363668331447","3","-0.34955344","0.3854665","9.516952","lay down","1"
"14363688289943","3","-0.30645782","0.39504328","9.536105","lay down","1"
"14363708278957","3","-0.31603462","0.47405192","9.425972","lay down","1"
"14363728237453","3","-0.2633622","0.50517654","9.437943","lay down","1"
"14363748165431","3","-0.272939","0.5746084","9.459491","lay down","1"
"14363768154445","3","-0.24660277","0.37110126","9.433155","lay down","1"
"14363788112941","3","-0.33518824","0.4333505","9.40203","lay down","1"
"14363808071437","3","-0.2657564","0.37110126","9.452309","lay down","1"
"14363828029933","3","-0.49799395","0.4141969","9.437943","lay down","1"
"14363847988429","3","-0.23463176","0.4357447","9.564836","lay down","1"
"14363867946925","3","-0.3854665","0.39025488","9.414001","lay down","1"
"14363887935939","3","-0.31603462","0.40462008","9.473856","lay down","1"
"14363907894435","3","-0.10055647","0.40940848","9.481039","lay down","1"
"14363927852931","3","-0.4309563","0.36631286","9.476251","lay down","1"
"14363947811427","3","-0.2753332","0.29209262","9.361329","lay down","1"
"14363967769923","3","-0.35913026","0.5602432","9.248801","lay down","1"
"14363987758937","3","-0.35434186","0.4309563","9.646238","lay down","1"
"14364007717433","3","-0.40222588","0.56982","9.370906","lay down","1"
"14364027645412","3","-0.4165911","0.46686932","9.488221","lay down","1"
"14364047634425","3","-0.28491","0.4381389","9.55047","lay down","1"
"14364067592921","3","-0.45250413","0.36870706","9.466674","lay down","1"
"14364087551418","3","-0.4285621","0.4189853","9.466674","lay down","1"
"14364107509914","3","-0.4285621","0.50038815","9.43076","lay down","1"
"14364127468410","3","-0.35194764","0.48602295","9.502586","lay down","1"
"14364147426906","3","-0.40222588","0.46447513","9.452309","lay down","1"
"14364167354884","3","-0.39983168","0.48362875","9.497798","lay down","1"
"14364187343898","3","-0.36152446","0.4261679","9.476251","lay down","1"
"14364207302394","3","-0.40701428","0.110133275","9.409213","lay down","1"
"14364227260890","3","-0.37349546","0.60573304","9.536105","lay down","1"
"14364247188869","3","-0.35434186","0.4141969","9.495404","lay down","1"
"14364267177882","3","-0.35194764","0.39025488","9.378088","lay down","1"
"14364287136378","3","-0.18914193","0.1412579","9.516952","lay down","1"
"14364307094875","3","-0.28491","0.49799395","9.083601","lay down","1"
"14364327053371","3","-0.11252748","0.1316811","9.593566","lay down","1"
"14364347011867","3","0.009576807","0.6895301","9.404425","lay down","1"
"14364366970363","3","0.21068975","0.7254431","9.569624","lay down","1"
"14364386959377","3","-0.5315128","0.5626374","9.524135","lay down","1"
"14364406887355","3","-0.842759","0.5315128","9.536105","lay down","1"
"14364426906886","3","-1.0031705","0.48602295","9.375694","lay down","1"
"14364446834865","3","-0.5363012","0.4165911","9.404425","lay down","1"
"14364466823878","3","-0.30166942","0.45489833","9.490616","lay down","1"
"14364486782375","3","-0.4261679","0.51475334","9.507375","lay down","1"
"14364506740871","3","-0.33518824","0.34476504","9.56723","lay down","1"
"14364526699367","3","-0.2896984","0.50038815","9.469068","lay down","1"
"14364546657863","3","-0.22505496","0.37349546","9.552865","lay down","1"
"14364566585841","3","-0.32561144","0.48841715","9.512163","lay down","1"
"14364586574855","3","-0.33039984","0.45729253","9.52174","lay down","1"
"14364606563869","3","-0.30166942","0.47405192","9.483433","lay down","1"
"14364626491847","3","-0.2633622","0.47644615","9.461885","lay down","1"
"14364646480861","3","-0.33039984","0.48602295","9.452309","lay down","1"
"14364666439357","3","-0.28491","0.46208093","9.440337","lay down","1"
"14364686397853","3","-0.2873042","0.45968673","9.476251","lay down","1"
"14364706356349","3","-0.2657564","0.46208093","9.435549","lay down","1"
"14364726314845","3","-0.2777274","0.4429273","9.454702","lay down","1"
"14364746303859","3","-0.34237084","0.47405192","9.452309","lay down","1"
"14364766262355","3","-0.5482722","0.41180268","9.423578","lay down","1"
"14364786220851","3","-0.37349546","0.4429273","9.495404","lay down","1"
"14364806209865","3","-0.2681506","0.41180268","9.476251","lay down","1"
"14364826168361","3","-0.2896984","0.47884035","9.454702","lay down","1"
"14364846126857","3","-0.28491","0.35434186","9.507375","lay down","1"
"14364866085353","3","-0.23702596","0.5386954","9.473856","lay down","1"
"14364886043849","3","-0.3184288","0.3854665","9.425972","lay down","1"
"14364906002345","3","-0.28491","0.4261679","9.531317","lay down","1"
"14364925960841","3","-0.29688102","0.47165772","9.404425","lay down","1"
"14364945949855","3","-0.3184288","0.37828386","9.497798","lay down","1"
"14364965908351","3","-0.33279404","0.5363012","9.488221","lay down","1"
"14364985897365","3","-0.32561144","0.32561144","9.595961","lay down","1"
"14365005855861","3","-0.32321724","0.45010993","9.363723","lay down","1"
"14365025814357","3","-0.31124622","0.4189853","9.507375","lay down","1"
"14365045772853","3","-0.32321724","0.4141969","9.457097","lay down","1"
"14365065731349","3","-0.31603462","0.4261679","9.469068","lay down","1"
"14365085689845","3","-0.320823","0.4237737","9.452309","lay down","1"
"14365105648341","3","-0.34476504","0.4285621","9.445126","lay down","1"
"14365125606837","3","-0.35673606","0.4285621","9.457097","lay down","1"
"14365145534816","3","-0.34955344","0.4213795","9.454702","lay down","1"
"14365165523830","3","-0.34476504","0.3854665","9.457097","lay down","1"
"14365185512843","3","-0.35434186","0.38307226","9.442732","lay down","1"
"14365205471339","3","-0.34955344","0.38067806","9.461885","lay down","1"
"14365225429836","3","-0.32561144","0.40940848","9.466674","lay down","1"
"14365245388332","3","-0.34955344","0.39504328","9.476251","lay down","1"
"14365265377345","3","-0.34237084","0.40701428","9.471462","lay down","1"
"14365285366359","3","-0.320823","0.40462008","9.507375","lay down","1"
"14365305324855","3","-0.30885202","0.38307226","9.516952","lay down","1"
"14365325252834","3","-0.30885202","0.39983168","9.481039","lay down","1"
"14365345241847","3","-0.30645782","0.40222588","9.49301","lay down","1"
"14365365200343","3","-0.29688102","0.4357447","9.507375","lay down","1"
"14365385158839","3","-0.2753332","0.47644615","9.473856","lay down","1"
"14365405117336","3","-0.3184288","0.4333505","9.44752","lay down","1"
"14365425075832","3","-0.34237084","0.4309563","9.459491","lay down","1"
"14365445034328","3","-0.31124622","0.4261679","9.454702","lay down","1"
"14365464992824","3","-0.32800564","0.46208093","9.483433","lay down","1"
"14365484951320","3","-0.35673606","0.4309563","9.452309","lay down","1"
"14365504909816","3","-0.35194764","0.40940848","9.471462","lay down","1"
"14365524898830","3","-0.32561144","0.39743748","9.440337","lay down","1"
"14365544857326","3","-0.35194764","0.4213795","9.44752","lay down","1"
"14365564846339","3","-0.35673606","0.4165911","9.425972","lay down","1"
"14365584835353","3","-0.35913026","0.40940848","9.466674","lay down","1"
"14365604793849","3","-0.35673606","0.4261679","9.461885","lay down","1"
"14365624752345","3","-0.36391866","0.4357447","9.481039","lay down","1"
"14365644741359","3","-0.35194764","0.3854665","9.478644","lay down","1"
"14365664699855","3","-0.36152446","0.4213795","9.43076","lay down","1"
"14365684658351","3","-0.34715924","0.45010993","9.512163","lay down","1"
"14365704616847","3","-0.32561144","0.4141969","9.514558","lay down","1"
"14365724575343","3","-0.35434186","0.40940848","9.437943","lay down","1"
"14365744533839","3","-0.320823","0.4285621","9.495404","lay down","1"
"14365764492336","3","-0.31603462","0.40462008","9.509769","lay down","1"
"14365784450832","3","-0.32561144","0.4189853","9.478644","lay down","1"
"14365804439845","3","-0.30406362","0.41180268","9.473856","lay down","1"
"14365824398341","3","-0.30645782","0.4237737","9.483433","lay down","1"
"14365844356837","3","-0.3184288","0.4237737","9.481039","lay down","1"
"14365864345851","3","-0.3184288","0.4237737","9.488221","lay down","1"
"14365884304347","3","-0.32561144","0.4213795","9.485827","lay down","1"
"14365904262843","3","-0.32321724","0.4237737","9.473856","lay down","1"
"14365924190822","3","-0.33279404","0.4141969","9.473856","lay down","1"
"14365944149318","3","-0.33039984","0.4237737","9.473856","lay down","1"
"14365964107814","3","-0.32321724","0.4213795","9.473856","lay down","1"
"14365984066310","3","-0.33758244","0.4237737","9.473856","lay down","1"
"14366004024806","3","-0.33997664","0.4261679","9.473856","lay down","1"
"14366024013820","3","-0.34476504","0.4261679","9.469068","lay down","1"
"14366043972316","3","-0.34237084","0.4261679","9.457097","lay down","1"
"14366063930812","3","-0.33758244","0.4333505","9.449914","lay down","1"
"14366083889308","3","-0.33997664","0.4213795","9.471462","lay down","1"
"14366103847804","3","-0.32800564","0.4333505","9.466674","lay down","1"
"14366123806300","3","-0.33758244","0.4213795","9.481039","lay down","1"
"14366143764796","3","-0.33039984","0.4141969","9.473856","lay down","1"
"14366163723293","3","-0.32800564","0.41180268","9.464279","lay down","1"
"14366183712306","3","-0.33039984","0.41180268","9.473856","lay down","1"
"14366203640285","3","-0.33758244","0.4213795","9.466674","lay down","1"
"14366223598781","3","-0.33279404","0.4261679","9.476251","lay down","1"
"14366243557277","3","-0.33039984","0.4285621","9.478644","lay down","1"
"14366263546291","3","-0.33039984","0.4261679","9.481039","lay down","1"
"14366283504787","3","-0.33279404","0.41180268","9.469068","roll side","1"
"14366303463283","3","-0.33039984","0.4285621","9.464279","roll side","1"
"14366323421779","3","-0.32800564","0.4189853","9.476251","roll side","1"
"14366343380275","3","-0.32561144","0.4285621","9.471462","roll side","1"
"14366363338771","3","-0.32321724","0.4261679","9.478644","roll side","1"
"14366383327785","3","-0.33518824","0.4333505","9.473856","roll side","1"
"14366403286281","3","-0.33279404","0.4309563","9.473856","roll side","1"
"14366423275295","3","-0.33518824","0.4141969","9.471462","roll side","1"
"14366443233791","3","-0.32800564","0.4189853","9.471462","roll side","1"
"14366463222804","3","-0.33758244","0.4285621","9.478644","roll side","1"
"14366483181300","3","-0.33518824","0.4189853","9.478644","roll side","1"
"14366503139796","3","-0.34237084","0.4189853","9.478644","roll side","1"
"14366523098293","3","-0.34237084","0.4165911","9.466674","roll side","1"
"14366543056789","3","-0.33279404","0.4141969","9.473856","roll side","1"
"14366563015285","3","-0.33997664","0.4309563","9.481039","roll side","1"
"14366582943263","3","-0.33518824","0.4237737","9.478644","roll side","1"
"14366602932277","3","-0.33758244","0.40462008","9.483433","roll side","1"
"14366622890773","3","-0.33758244","0.4213795","9.476251","roll side","1"
"14366642879787","3","-0.3184288","0.4189853","9.466674","roll side","1"
"14366662838283","3","-0.35913026","0.37828386","9.466674","roll side","1"
"14366682827296","3","-0.320823","0.47884035","9.440337","roll side","1"
"14366702785793","3","-0.30645782","0.40701428","9.514558","roll side","1"
"14366722744289","3","-0.33518824","0.4189853","9.500193","roll side","1"
"14366742702785","3","-0.2873042","0.320823","9.471462","roll side","1"
"14366762661281","3","-0.33039984","0.4333505","9.411607","roll side","1"
"14366782619777","3","-0.33039984","0.39264908","9.490616","roll side","1"
"14366802608791","3","-0.36631286","0.47644615","9.469068","roll side","1"
"14366822567287","3","-0.35913026","0.45250413","9.461885","roll side","1"
"14366842525783","3","-0.32800564","0.45489833","9.49301","roll side","1"
"14366862514796","3","-0.34715924","0.41180268","9.421184","roll side","1"
"14366882473293","3","-0.33279404","0.4357447","9.454702","roll side","1"
"14366902431789","3","-0.33997664","0.4429273","9.469068","roll side","1"
"14366922390285","3","-0.34237084","0.40940848","9.49301","roll side","1"
"14366942348781","3","-0.34955344","0.4141969","9.449914","roll side","1"
"14366962276759","3","-0.33758244","0.4141969","9.481039","roll side","1"
"14366982235255","3","-0.3184288","0.4333505","9.469068","roll side","1"
"14367002193752","3","-0.34955344","0.4309563","9.469068","roll side","1"
"14367022152248","3","-0.33997664","0.4261679","9.490616","roll side","1"
"14367042110744","3","-0.33279404","0.4141969","9.473856","roll side","1"
"14367062069240","3","-0.35434186","0.40701428","9.485827","roll side","1"
"14367082058253","3","-0.33758244","0.4141969","9.466674","roll side","1"
"14367102016750","3","-0.32321724","0.4213795","9.461885","roll side","1"
"14367121944728","3","-0.35194764","0.4189853","9.452309","roll side","1"
"14367141933742","3","-0.33279404","0.4165911","9.490616","roll side","1"
"14367161892238","3","-0.35913026","0.4309563","9.502586","roll side","1"
"14367181850734","3","-0.34237084","0.39743748","9.52174","roll side","1"
"14367201778712","3","-0.3184288","0.41180268","9.516952","roll side","1"
"14367221767726","3","-0.32800564","0.36152446","9.485827","roll side","1"
"14367241726222","3","-0.34476504","0.40701428","9.497798","roll side","1"
"14367261684718","3","-0.37349546","0.4333505","9.433155","roll side","1"
"14367281673732","3","-0.31124622","0.5315128","9.500193","roll side","1"
"14367301632228","3","-0.21308395","0.4333505","9.540894","roll side","1"
"14367321590724","3","-0.4357447","0.6512229","9.239224","roll side","1"
"14367341549220","3","-0.32321724","0.5315128","9.981427","roll side","1"
"14367361507716","3","-0.32321724","0.47165772","9.557653","roll side","1"
"14367381466212","3","-0.37110126","0.5434838","9.28232","roll side","1"
"14367401424709","3","-0.2657564","0.39983168","9.579201","roll side","1"
"14367421383205","3","-0.30885202","0.4165911","9.500193","roll side","1"
"14367441372218","3","-0.21547815","0.50038815","9.600749","roll side","1"
"14367461330714","3","-0.21787235","0.35434186","9.569624","roll side","1"
"14367481289211","3","-0.009576807","0.4285621","9.435549","roll side","1"
"14367501278224","3","0.2657564","0.33279404","9.509769","roll side","1"
"14367521236720","3","-0.30166942","0.49559975","9.485827","roll side","1"
"14367541225734","3","-0.5746084","0.581791","9.454702","roll side","1"
"14367561184230","3","-0.80684596","0.49799395","9.495404","roll side","1"
"14367581173244","3","-0.51714754","0.46447513","9.368511","roll side","1"
"14367601131740","3","-0.3854665","0.50757074","9.442732","roll side","1"
"14367621090236","3","-0.31124622","0.39025488","9.445126","roll side","1"
"14367641079250","3","-0.28491","0.37349546","9.507375","roll side","1"
"14367661037746","3","-0.34955344","0.40222588","9.461885","roll side","1"
"14367681026759","3","-0.39743748","0.45968673","9.564836","roll side","1"
"14367700985255","3","-0.31364042","0.50278234","9.485827","roll side","1"
"14367720943752","3","-0.31603462","0.46686932","9.454702","roll side","1"
"14367740932765","3","-0.4285621","0.36391866","9.471462","roll side","1"
"14367760860744","3","-0.16759412","0.059855044","9.409213","roll side","1"
"14367780819240","3","-0.33518824","0.36391866","9.469068","roll side","1"
"14367800777736","3","-0.30406362","0.39983168","9.579201","roll side","1"
"14367820736232","3","-0.33758244","0.38307226","9.52174","roll side","1"
"14367840694728","3","-0.39025488","0.29448682","9.442732","roll side","1"
"14367860653224","3","-0.3184288","0.39264908","9.32781","roll side","1"
"14367880642238","3","-0.40462008","0.46686932","9.425972","roll side","1"
"14367900600734","3","-0.36631286","0.45010993","9.500193","roll side","1"
"14367920559230","3","-0.36152446","0.5434838","9.485827","roll side","1"
"14367940548244","3","-0.30885202","0.50757074","9.583989","roll side","1"
"14367960506740","3","-0.24420857","0.7158663","9.234436","roll side","1"
"14367980465236","3","-0.22744916","0.24899697","9.595961","roll side","1"
"14368000423732","3","-0.20590134","0.59136784","9.196129","roll side","1"
"14368020382228","3","-0.15562311","0.45489833","9.483433","roll side","1"
"14368040371242","3","-0.1340753","0.40940848","9.564836","roll side","1"
"14368060360255","3","-0.19393034","0.40940848","9.435549","roll side","1"
"14368080318752","3","-0.19153613","0.40222588","9.483433","roll side","1"
"14368100277248","3","-0.21068975","0.40701428","9.481039","roll side","1"
"14368120235744","3","-0.21787235","0.36870706","9.500193","roll side","1"
"14368140194240","3","-0.24899697","0.37110126","9.512163","roll side","1"
"14368160152736","3","-0.14844051","0.46447513","9.543288","roll side","1"
"14368180111232","3","-0.22266077","0.41180268","9.483433","roll side","1"
"14368200100246","3","-0.21068975","0.4261679","9.488221","roll side","1"
"14368220058742","3","-0.22026655","0.47884035","9.533711","roll side","1"
"14368239986720","3","-0.7302315","0.49081135","9.409213","roll side","1"
"14368259975734","3","-0.29688102","0.6368576","9.380483","roll side","1"
"14368279964748","3","-0.34476504","0.50757074","9.497798","roll side","1"
"14368299923244","3","-0.320823","0.47644615","9.449914","roll side","1"
"14368319881740","3","-0.31364042","0.50757074","9.488221","roll side","1"
"14368339840236","3","-0.34715924","0.45729253","9.406818","roll side","1"
"14368359798732","3","-0.25617957","0.4405331","9.476251","roll side","1"
"14368379757228","3","-0.32321724","0.48841715","9.442732","roll side","1"
"14368399685207","3","-0.2873042","0.4237737","9.512163","roll side","1"
"14368419674220","3","-0.260968","0.39264908","9.488221","roll side","1"
"14368439632716","3","-0.23223756","0.40701428","9.52174","roll side","1"
"14368459591212","3","-0.2825158","0.45729253","9.490616","roll side","1"
"14368479549709","3","-0.2705448","0.4429273","9.488221","roll side","1"
"14368499508205","3","-0.29209262","0.4333505","9.516952","roll side","1"
"14368519466701","3","-0.3184288","0.36152446","9.457097","roll side","1"
"14368539455714","3","-0.34715924","0.4213795","9.416395","roll side","1"
"14368559414211","3","-0.37349546","0.4141969","9.466674","roll side","1"
"14368579372707","3","-0.33039984","0.40462008","9.466674","roll side","1"
"14368599331203","3","-0.38307226","0.4141969","9.449914","roll side","1"
"14368619289699","3","-0.40701428","0.39025488","9.483433","roll side","1"
"14368639248195","3","-0.35913026","0.34476504","9.514558","roll side","1"
"14368659206691","3","-0.272939","0.37828386","9.548077","roll side","1"
"14368679165187","3","-0.2873042","0.4237737","9.579201","roll side","1"
"14368699123683","3","-0.320823","0.40222588","9.52174","roll side","1"
"14368719082179","3","-0.320823","0.39025488","9.507375","roll side","1"
"14368739071193","3","-0.29688102","0.3854665","9.488221","roll side","1"
"14368759029689","3","-0.40701428","0.36391866","9.504981","roll side","1"
"14368778988185","3","-0.40701428","0.5793968","9.469068","roll side","1"
"14368798946681","3","-0.37349546","0.34237084","9.514558","roll side","1"
"14368818905177","3","-0.29209262","0.47644615","9.299079","roll side","1"
"14368838863673","3","-0.34955344","0.61770403","9.258378","roll side","1"
"14368858822170","3","-0.2681506","0.47165772","9.617508","roll side","1"
"14368878780666","3","-0.2896984","0.4285621","9.536105","roll side","1"
"14368898739162","3","-0.28491","0.4189853","9.421184","roll side","1"
"14368918697658","3","-0.260968","0.4213795","9.459491","roll side","1"
"14368938686671","3","-0.30406362","0.4165911","9.452309","roll side","1"
"14368958645168","3","-0.25378537","0.4285621","9.473856","roll side","1"
"14368978603664","3","-0.32321724","0.47165772","9.483433","roll side","1"
"14368998592677","3","-0.30645782","0.46447513","9.504981","roll side","1"
"14369018551173","3","-0.32561144","0.4357447","9.481039","roll side","1"
"14369038509670","3","-0.35913026","0.45010993","9.445126","roll side","1"
"14369058468166","3","-0.35194764","0.4285621","9.452309","roll side","1"
"14369078457179","3","-0.320823","0.4381389","9.481039","roll side","1"
"14369098415675","3","-0.320823","0.4357447","9.478644","roll side","1"
"14369118404689","3","-0.33279404","0.4381389","9.44752","roll side","1"
"14369138393703","3","-0.31124622","0.4213795","9.469068","roll side","1"
"14369158352199","3","-0.33518824","0.4285621","9.478644","roll side","1"
"14369178341212","3","-0.33518824","0.44771573","9.481039","roll side","1"
"14369198299709","3","-0.31124622","0.4381389","9.49301","roll side","1"
"14369218258205","3","-0.33039984","0.44771573","9.471462","roll side","1"
"14369238216701","3","-0.33039984","0.44771573","9.481039","roll side","1"
"14369258175197","3","-0.32561144","0.4381389","9.481039","roll side","1"
"14369278133693","3","-0.34237084","0.4333505","9.476251","roll side","1"
"14369298122707","3","-0.32321724","0.4285621","9.476251","roll side","1"
"14369318081203","3","-0.32800564","0.4405331","9.466674","roll side","1"
"14369338039699","3","-0.33279404","0.4405331","9.466674","roll side","1"
"14369357998195","3","-0.33279404","0.4381389","9.485827","roll side","1"
"14369377987209","3","-0.33039984","0.4285621","9.473856","roll side","1"
"14369397945705","3","-0.35913026","0.39983168","9.514558","roll side","1"
"14369417934718","3","-0.33279404","0.45968673","9.411607","roll side","1"
"14369437893214","3","-0.33279404","0.4261679","9.488221","roll side","1"
"14369457851711","3","-0.37588966","0.45010993","9.473856","roll side","1"
"14369477810207","3","-0.29209262","0.4333505","9.507375","roll side","1"
"14369497768703","3","-0.34476504","0.4405331","9.449914","roll side","1"
"14369517727199","3","-0.32321724","0.4357447","9.495404","roll side","1"
"14369537685695","3","-0.320823","0.4429273","9.473856","roll side","1"
"14369557644191","3","-0.33518824","0.4285621","9.454702","roll side","1"
"14369577602687","3","-0.32321724","0.4357447","9.478644","roll side","1"
"14369597561183","3","-0.33518824","0.4357447","9.464279","roll side","1"
"14369617519679","3","-0.32800564","0.4429273","9.471462","roll side","1"
"14369637478175","3","-0.33518824","0.4357447","9.478644","roll side","1"
"14369657436671","3","-0.33518824","0.4405331","9.473856","roll side","1"
"14369677395168","3","-0.33039984","0.4309563","9.464279","roll side","1"
"14369697353664","3","-0.33279404","0.4261679","9.476251","roll side","1"
"14369717312160","3","-0.32800564","0.4333505","9.490616","roll side","1"
"14369737270656","3","-0.33758244","0.4213795","9.488221","roll side","1"
"14369757259670","3","-0.32321724","0.4333505","9.476251","roll side","1"
"14369777218166","3","-0.33039984","0.4309563","9.478644","roll side","1"
"14369797176662","3","-0.33518824","0.4381389","9.464279","roll side","1"
"14369817135158","3","-0.33039984","0.4405331","9.481039","roll side","1"
"14369837093654","3","-0.33039984","0.4381389","9.473856","roll side","1"
"14369857082668","3","-0.33039984","0.4381389","9.476251","roll side","1"
"14369877041164","3","-0.33518824","0.4405331","9.483433","roll side","1"
"14369896999660","3","-0.33997664","0.4333505","9.464279","roll side","1"
"14369916958156","3","-0.32321724","0.4261679","9.466674","roll side","1"
"14369936916652","3","-0.32800564","0.4261679","9.469068","roll side","1"
"14369956875148","3","-0.32800564","0.4333505","9.464279","roll side","1"
"14369976833644","3","-0.32561144","0.4261679","9.478644","roll side","1"
"14369996792140","3","-0.33039984","0.4261679","9.481039","roll side","1"
"14370016750636","3","-0.32800564","0.4357447","9.476251","roll side","1"
"14370036709132","3","-0.32561144","0.4357447","9.469068","roll side","1"
"14370056667628","3","-0.32561144","0.4405331","9.469068","roll side","1"
"14370076626125","3","-0.33518824","0.4333505","9.471462","roll side","1"
"14370096584621","3","-0.32800564","0.4261679","9.478644","roll side","1"
"14370116543117","3","-0.33997664","0.4309563","9.478644","roll side","1"
"14370136532130","3","-0.34237084","0.4213795","9.461885","roll side","1"
"14370156521144","3","-0.33758244","0.4213795","9.466674","roll side","1"
"14370176479640","3","-0.33039984","0.4285621","9.478644","roll side","1"
"14370196438136","3","-0.33279404","0.4285621","9.476251","roll side","1"
"14370216396632","3","-0.33039984","0.4333505","9.476251","roll side","1"
"14370236385646","3","-0.33279404","0.4381389","9.483433","roll side","1"
"14370256344142","3","-0.33039984","0.4333505","9.483433","roll side","1"
"14370276302638","3","-0.32321724","0.4237737","9.473856","roll back","1"
"14370296261134","3","-0.32800564","0.4357447","9.457097","roll back","1"
"14370316219630","3","-0.33758244","0.4213795","9.464279","roll back","1"
"14370336178127","3","-0.33518824","0.4405331","9.481039","roll back","1"
"14370356116618","3","-0.33518824","0.4381389","9.481039","roll back","1"
"14370376093233","3","-0.32800564","0.4285621","9.478644","roll back","1"
"14370396053615","3","-0.33518824","0.4237737","9.466674","roll back","1"
"14370416012111","3","-0.33279404","0.4285621","9.466674","roll back","1"
"14370435970607","3","-0.33758244","0.4309563","9.471462","roll back","1"
"14370455959621","3","-0.34237084","0.4381389","9.478644","roll back","1"
"14370475918117","3","-0.33518824","0.4333505","9.483433","roll back","1"
"14370495876613","3","-0.33518824","0.4333505","9.476251","roll back","1"
"14370515835109","3","-0.32800564","0.4285621","9.471462","roll back","1"
"14370535793605","3","-0.33758244","0.4261679","9.469068","roll back","1"
"14370555737887","3","-0.33997664","0.4213795","9.464279","roll back","1"
"14370575710597","3","-0.33518824","0.4357447","9.478644","roll back","1"
"14370595654695","3","-0.33039984","0.4405331","9.471462","roll back","1"
"14370615627589","3","-0.32800564","0.4285621","9.473856","roll back","1"
"14370635586086","3","-0.33518824","0.4333505","9.461885","roll back","1"
"14370655544582","3","-0.32561144","0.4357447","9.471462","roll back","1"
"14370675503078","3","-0.320823","0.4165911","9.485827","roll back","1"
"14370695492091","3","-0.33758244","0.4333505","9.481039","roll back","1"
"14370715450587","3","-0.32321724","0.41180268","9.473856","roll back","1"
"14370735439601","3","-0.33039984","0.4405331","9.466674","roll back","1"
"14370755367580","3","-0.33758244","0.4285621","9.473856","roll back","1"
"14370775356593","3","-0.34237084","0.4309563","9.471462","roll back","1"
"14370795315089","3","-0.34476504","0.44771573","9.488221","roll back","1"
"14370815294502","3","-0.32561144","0.4189853","9.485827","roll back","1"
"14370835262599","3","-0.33279404","0.4357447","9.454702","roll back","1"
"14370855251613","3","-0.33518824","0.4333505","9.445126","roll back","1"
"14370875210109","3","-0.32561144","0.4357447","9.476251","roll back","1"
"14370895161117","3","-0.31603462","0.4381389","9.469068","roll back","1"
"14370915111233","3","-0.33518824","0.4237737","9.471462","roll back","1"
"14370935085597","3","-0.33997664","0.4261679","9.469068","roll back","1"
"14370955044093","3","-0.33758244","0.4261679","9.459491","roll back","1"
"14370975002589","3","-0.320823","0.4285621","9.469068","roll back","1"
"14370994991603","3","-0.33039984","0.4309563","9.478644","roll back","1"
"14371014980617","3","-0.320823","0.4429273","9.469068","roll back","1"
"14371034908595","3","-0.33518824","0.4405331","9.466674","roll back","1"
"14371054867091","3","-0.32321724","0.4405331","9.488221","roll back","1"
"14371074825587","3","-0.30885202","0.4213795","9.490616","roll back","1"
"14371094784084","3","-0.35194764","0.39504328","9.464279","roll back","1"
"14371114742580","3","-0.30166942","0.4165911","9.437943","roll back","1"
"14371134701076","3","-0.33997664","0.39504328","9.485827","roll back","1"
"14371154659572","3","-0.31124622","0.39983168","9.473856","roll back","1"
"14371174618068","3","-0.34715924","0.45489833","9.488221","roll back","1"
"14371194607082","3","-0.32800564","0.4213795","9.464279","roll back","1"
"14371214547502","3","-0.32321724","0.4165911","9.52174","roll back","1"
"14371234522617","3","-0.33758244","0.39264908","9.512163","roll back","1"
"14371254482570","3","-0.36152446","0.4357447","9.435549","roll back","1"
"14371274410548","3","-0.44771573","0.35194764","9.411607","roll back","1"
"14371294399562","3","-0.25378537","0.32321724","9.411607","roll back","1"
"14371314388576","3","-0.1340753","0.46926352","9.404425","roll back","1"
"14371334347072","3","-0.34237084","0.5602432","9.464279","roll back","1"
"14371354305568","3","-0.2753332","0.59855044","9.440337","roll back","1"
"14371374258617","3","-0.6967127","0.49320555","9.507375","roll back","1"
"14371394198155","3","-0.15083471","0.50996494","9.361329","roll back","1"
"14371414150539","3","-0.38067806","0.4213795","9.279925","roll back","1"
"14371434139552","3","-0.260968","0.37588966","9.540894","roll back","1"
"14371454098048","3","-0.30166942","0.39025488","9.445126","roll back","1"
"14371474051002","3","-0.34237084","0.4285621","9.452309","roll back","1"
"14371494015041","3","-0.32561144","0.46208093","9.509769","roll back","1"
"14371513965232","3","-0.25857377","0.4405331","9.481039","roll back","1"
"14371533932033","3","-0.29209262","0.47644615","9.361329","roll back","1"
"14371553890529","3","-0.29209262","0.4405331","9.514558","roll back","1"
"14371573879543","3","-0.24181437","0.46447513","9.380483","roll back","1"
"14371593807521","3","-0.2801216","0.40462008","9.564836","roll back","1"
"14371613764540","3","-0.37110126","0.47644615","9.466674","roll back","1"
"14371633719925","3","-0.35673606","0.3878607","9.56723","roll back","1"
"14371653713527","3","-0.29448682","0.39264908","9.49301","roll back","1"
"14371673672023","3","-0.23463176","0.4189853","9.610326","roll back","1"
"14371693630519","3","-0.33758244","0.39264908","9.469068","roll back","1"
"14371713586617","3","-0.2777274","0.49559975","9.533711","roll back","1"
"14371733578029","3","-0.4213795","0.37110126","9.478644","roll back","1"
"14371753536525","3","-0.31364042","0.4381389","9.55047","roll back","1"
"14371773495021","3","-0.36870706","0.2896984","9.543288","roll back","1"
"14371793430848","3","-0.40222588","0.4357447","9.473856","roll back","1"
"14371813412013","3","-0.4141969","0.581791","9.43076","roll back","1"
"14371833353578","3","-0.39983168","0.59376204","9.433155","roll back","1"
"14371853359523","3","-0.25857377","0.49559975","9.43076","roll back","1"
"14371873318019","3","-0.20350714","0.4333505","9.519346","roll back","1"
"14371893307033","3","-0.32800564","0.32800564","9.49301","roll back","1"
"14371913296046","3","-0.58657944","0.4189853","9.320627","roll back","1"
"14371933235001","3","-0.29688102","0.18914193","9.548077","roll back","1"
"14371953238924","3","-0.25857377","0.5626374","9.349358","roll back","1"
"14371973202052","3","-0.29448682","0.33997664","9.454702","roll back","1"
"14371993191066","3","-0.32561144","0.38067806","9.411607","roll back","1"
"14372013141117","3","-0.19393034","0.2825158","9.49301","roll back","1"
"14372033103809","3","-0.32321724","0.4333505","9.739613","roll back","1"
"14372053097072","3","-0.16998832","0.4141969","9.272743","roll back","1"
"14372073055568","3","-0.30166942","0.4189853","9.442732","roll back","1"
"14372093003501","3","-0.37588966","0.4285621","9.461885","roll back","1"
"14372112958155","3","-0.33279404","0.39504328","9.55047","roll back","1"
"14372132931056","3","-0.16998832","0.49320555","9.507375","roll back","1"
"14372152873809","3","-0.4237737","0.50757074","9.294291","roll back","1"
"14372172826078","3","-0.29927522","0.39504328","9.67018","roll back","1"
"14372192806545","3","-0.25139117","0.41180268","9.540894","roll back","1"
"14372212765041","3","-0.2705448","0.4165911","9.392453","roll back","1"
"14372232723537","3","-0.260968","0.37349546","9.502586","roll back","1"
"14372252682033","3","-0.272939","0.50996494","9.428367","roll back","1"
"14372272640529","3","-0.25139117","0.4141969","9.5385","roll back","1"
"14372292605463","3","-0.24420857","0.36631286","9.536105","roll back","1"
"14372312571347","3","-0.30885202","0.48841715","9.210494","roll back","1"
"14372332539232","3","-0.41180268","0.5554548","9.346964","roll back","1"
"14372352505031","3","-0.30885202","0.49081135","9.631873","roll back","1"
"14372372494045","3","-0.29448682","0.33758244","9.730036","roll back","1"
"14372392452541","3","-0.23223756","0.5291186","9.320627","roll back","1"
"14372412403232","3","-0.2777274","0.37828386","9.524135","roll back","1"
"14372432400050","3","-0.22744916","0.4309563","9.442732","roll back","1"
"14372452322578","3","-0.16998832","0.48841715","9.411607","roll back","1"
"14372472317043","3","-0.32800564","0.36870706","9.500193","roll back","1"
"14372492229578","3","-0.34715924","0.37110126","9.564836","roll back","1"
"14372512234035","3","-0.48841715","0.38067806","9.452309","roll back","1"
"14372532192531","3","-0.4261679","0.35673606","9.56723","roll back","1"
"14372552126039","3","-0.2873042","0.37110126","9.485827","roll back","1"
"14372572109523","3","-0.29688102","0.4261679","9.449914","roll back","1"
"14372592098537","3","-0.272939","0.39743748","9.5385","roll back","1"
"14372612026385","3","-0.2896984","0.48841715","9.23683","roll back","1"
"14372632015529","3","-0.2825158","0.4165911","9.478644","roll back","1"
"14372651974025","3","-0.29927522","0.45250413","9.473856","roll back","1"
"14372671932521","3","-0.31364042","0.45968673","9.483433","roll back","1"
"14372691883693","3","-0.30645782","0.4405331","9.500193","roll back","1"
"14372711840731","3","-0.30406362","0.4189853","9.49301","roll back","1"
"14372731808009","3","-0.2896984","0.4357447","9.469068","roll back","1"
"14372751766505","3","-0.29927522","0.4261679","9.488221","roll back","1"
"14372771755519","3","-0.2681506","0.4213795","9.437943","roll back","1"
"14372791673347","3","-0.30406362","0.4381389","9.454702","roll back","1"
"14372811669808","3","-0.2896984","0.4189853","9.41879","roll back","1"
"14372831631007","3","-0.32561144","0.4357447","9.44752","roll back","1"
"14372851589503","3","-0.3184288","0.45729253","9.481039","roll back","1"
"14372871522039","3","-0.30885202","0.4189853","9.519346","roll back","1"
"14372891479885","3","-0.30406362","0.46208093","9.466674","roll back","1"
"14372911464992","3","-0.29688102","0.45250413","9.488221","roll back","1"
"14372931396654","3","-0.30406362","0.41180268","9.490616","roll back","1"
"14372951318193","3","-0.30406362","0.4141969","9.481039","roll back","1"
"14372971309962","3","-0.29927522","0.4189853","9.469068","roll back","1"
"14372991274193","3","-0.30645782","0.4213795","9.473856","roll back","1"
"14373011257472","3","-0.30885202","0.4165911","9.481039","roll back","1"
"14373031215968","3","-0.2896984","0.40701428","9.481039","roll back","1"
"14373051174464","3","-0.31124622","0.4141969","9.478644","roll back","1"
"14373071143270","3","-0.31603462","0.4165911","9.481039","roll back","1"
"14373091121974","3","-0.2801216","0.4333505","9.478644","roll back","1"
"14373111056077","3","-0.28491","0.4381389","9.488221","roll back","1"
"14373131011347","3","-0.29448682","0.4213795","9.454702","roll back","1"
"14373150954923","3","-0.2873042","0.4237737","9.469068","roll back","1"
"14373170955959","3","-0.29448682","0.4285621","9.495404","roll back","1"
"14373190873923","3","-0.31364042","0.4357447","9.457097","roll back","1"
"14373210872951","3","-0.30885202","0.4285621","9.454702","roll back","1"
"14373230831447","3","-0.3184288","0.4333505","9.473856","roll back","1"
"14373250789943","3","-0.31364042","0.4189853","9.457097","roll back","1"
"14373270707231","3","-0.31603462","0.4333505","9.478644","roll back","1"
"14373290706935","3","-0.31124622","0.4189853","9.488221","roll back","1"
"14373310665431","3","-0.30885202","0.4285621","9.461885","roll back","1"
"14373330623927","3","-0.30166942","0.4189853","9.466674","roll back","1"
"14373350582423","3","-0.30406362","0.4189853","9.478644","roll back","1"
"14373370571437","3","-0.30166942","0.4237737","9.473856","roll back","1"
"14373390499416","3","-0.30885202","0.4261679","9.473856","roll back","1"
"14373410428346","3","-0.31124622","0.4261679","9.473856","roll back","1"
"14373430446925","3","-0.31124622","0.4189853","9.469068","roll back","1"
"14373450405421","3","-0.30885202","0.4213795","9.485827","roll back","1"
"14373470383231","3","-0.30885202","0.4165911","9.473856","roll back","1"
"14373490352931","3","-0.29927522","0.4261679","9.469068","roll back","1"
"14373510311427","3","-0.30406362","0.4213795","9.464279","roll back","1"
"14373530269923","3","-0.31364042","0.4213795","9.473856","roll back","1"
"14373550219077","3","-0.30166942","0.4285621","9.473856","roll back","1"
"14373570217433","3","-0.30406362","0.4357447","9.471462","roll back","1"
"14373590175929","3","-0.30885202","0.4237737","9.478644","roll back","1"
"14373610134425","3","-0.30645782","0.4237737","9.471462","roll back","1"
"14373630092921","3","-0.30406362","0.4237737","9.478644","roll back","1"
"14373650051418","3","-0.30645782","0.4333505","9.471462","roll back","1"
"14373669973654","3","-0.31124622","0.4309563","9.473856","roll back","1"
"14373689972846","3","-0.29927522","0.4141969","9.478644","roll back","1"
"14373709951692","3","-0.30645782","0.4213795","9.485827","roll back","1"
"14373729869231","3","-0.31124622","0.4261679","9.478644","roll back","1"
"14373749804808","3","-0.29927522","0.4237737","9.478644","roll back","1"
"14373769802394","3","-0.31364042","0.4309563","9.471462","roll back","1"
"14373789758423","3","-0.30166942","0.4285621","9.466674","roll back","1"
"14373809738923","3","-0.30645782","0.4189853","9.466674","roll back","1"
"14373829644461","3","-0.31124622","0.4189853","9.466674","roll back","1"
"14373849645692","3","-0.30166942","0.4213795","9.473856","roll back","1"
"14373869655910","3","-0.31124622","0.4309563","9.466674","roll back","1"
"14373889644923","3","-0.30645782","0.4309563","9.461885","roll back","1"
"14373909585884","3","-0.31603462","0.4213795","9.478644","roll back","1"
"14373929520000","3","-0.30166942","0.4213795","9.478644","roll back","1"
"14373949550929","3","-0.30645782","0.4237737","9.473856","roll back","1"
"14373969509425","3","-0.30645782","0.4285621","9.464279","roll back","1"
"14373989467921","3","-0.31124622","0.4237737","9.476251","roll back","1"
"14374009426418","3","-0.3184288","0.4237737","9.466674","roll back","1"
"14374029415431","3","-0.30406362","0.4189853","9.466674","roll back","1"
"14374049370231","3","-0.30406362","0.4237737","9.478644","roll back","1"
"14374069332423","3","-0.31603462","0.4213795","9.473856","roll back","1"
"14374089290920","3","-0.30406362","0.4333505","9.471462","roll back","1"
"14374109249416","3","-0.3184288","0.4213795","9.473856","roll back","1"
"14374129207912","3","-0.31124622","0.4261679","9.473856","roll back","1"
"14374149166408","3","-0.30406362","0.4189853","9.469068","roll back","1"
"14374169155421","3","-0.30885202","0.4285621","9.481039","roll back","1"
"14374189113918","3","-0.31364042","0.4237737","9.476251","roll back","1"
"14374209059961","3","-0.31603462","0.4237737","9.469068","roll back","1"
"14374228989384","3","-0.31124622","0.4261679","9.471462","roll back","1"
"14374248989406","3","-0.31124622","0.4285621","9.473856","roll back","1"
"14374268978420","3","-0.31124622","0.4285621","9.473856","agitation","1"
"14374288936916","3","-0.31603462","0.4237737","9.485827","agitation","1"
"14374308816423","3","-0.30645782","0.4189853","9.483433","agitation","1"
"14374328823390","3","-0.30885202","0.4189853","9.459491","agitation","1"
"14374348753000","3","-0.31603462","0.4213795","9.471462","agitation","1"
"14374368770900","3","-0.31124622","0.4213795","9.478644","agitation","1"
"14374388654846","3","-0.31603462","0.4189853","9.476251","agitation","1"
"14374408634307","3","-0.30406362","0.4357447","9.478644","agitation","1"
"14374428579999","3","-0.30406362","0.4261679","9.471462","agitation","1"
"14374448579499","3","-0.30885202","0.4309563","9.454702","agitation","1"
"14374468490346","3","-0.31603462","0.4261679","9.469068","agitation","1"
"14374488460461","3","-0.31603462","0.4309563","9.481039","agitation","1"
"14374508407153","3","-0.30885202","0.4285621","9.481039","agitation","1"
"14374528356461","3","-0.31364042","0.4309563","9.481039","agitation","1"
"14374548349307","3","-0.31124622","0.4333505","9.464279","agitation","1"
"14374568316653","3","-0.30645782","0.4309563","9.459491","agitation","1"
"14374588234538","3","-0.30885202","0.4237737","9.469068","agitation","1"
"14374608247538","3","-0.30645782","0.4261679","9.478644","agitation","1"
"14374628231349","3","-0.31124622","0.4333505","9.476251","agitation","1"
"14374648189845","3","-0.30406362","0.4357447","9.469068","agitation","1"
"14374668148341","3","-0.30406362","0.4261679","9.478644","agitation","1"
"14374688106837","3","-0.31124622","0.4333505","9.466674","agitation","1"
"14374708095851","3","-0.30166942","0.4261679","9.464279","agitation","1"
"14374728084865","3","-0.3184288","0.4189853","9.478644","agitation","1"
"14374747957076","3","-0.29927522","0.39983168","9.478644","agitation","1"
"14374768001857","3","-0.31124622","0.4357447","9.466674","agitation","1"
"14374787960353","3","-0.3184288","0.44771573","9.466674","agitation","1"
"14374807918849","3","-0.31124622","0.45010993","9.52174","agitation","1"
"14374827877345","3","-0.32800564","0.40940848","9.495404","agitation","1"
"14374847791345","3","-0.29688102","0.45489833","9.49301","agitation","1"
"14374867728384","3","-0.30645782","0.4165911","9.49301","agitation","1"
"14374887783351","3","-0.30885202","0.4429273","9.469068","agitation","1"
"14374907741847","3","-0.30885202","0.40701428","9.497798","agitation","1"
"14374927700343","3","-0.29209262","0.44532153","9.464279","agitation","1"
"14374947658839","3","-0.29927522","0.40701428","9.481039","agitation","1"
"14374967647853","3","-0.2633622","0.4309563","9.516952","agitation","1"
"14374987606349","3","-0.24420857","0.47644615","9.43076","agitation","1"
"14375007595363","3","-0.29688102","0.40222588","9.500193","agitation","1"
"14375027475345","3","-0.31124622","0.39983168","9.454702","agitation","1"
"14375047478884","3","-0.40222588","0.45250413","9.449914","agitation","1"
"14375067429768","3","-0.4285621","0.4237737","9.445126","agitation","1"
"14375087429347","3","-0.35194764","0.45729253","9.466674","agitation","1"
"14375107387843","3","-0.3184288","0.44532153","9.449914","agitation","1"
"14375127290807","3","-0.30885202","0.41180268","9.452309","agitation","1"
"14375147244922","3","-0.24899697","0.39264908","9.485827","agitation","1"
"14375167203730","3","-0.29209262","0.4285621","9.497798","agitation","1"
"14375187134076","3","-0.29688102","0.3854665","9.488221","agitation","1"
"14375207180324","3","-0.2657564","0.4213795","9.454702","agitation","1"
"14375227138820","3","-0.272939","0.36631286","9.457097","agitation","1"
"14375247127834","3","-0.31364042","0.39743748","9.43076","agitation","1"
"14375267026730","3","-0.31603462","0.4285621","9.457097","agitation","1"
"14375287044826","3","-0.29448682","0.45010993","9.440337","agitation","1"
"14375307033839","3","-0.32321724","0.46926352","9.459491","agitation","1"
"14375326992336","3","-0.31124622","0.4285621","9.514558","agitation","1"
"14375346950832","3","-0.33518824","0.45968673","9.488221","agitation","1"
"14375366909328","3","-0.30166942","0.45010993","9.526528","agitation","1"
"14375386867824","3","-0.31603462","0.4261679","9.488221","agitation","1"
"14375406783883","3","-0.2873042","0.4261679","9.471462","agitation","1"
"14375426784816","3","-0.31603462","0.39504328","9.464279","agitation","1"
"14375446743312","3","-0.30166942","0.40940848","9.488221","agitation","1"
"14375466701808","3","-0.29688102","0.4141969","9.459491","agitation","1"
"14375486660304","3","-0.34237084","0.46447513","9.509769","agitation","1"
"14375506618800","3","-0.29927522","0.39743748","9.490616","agitation","1"
"14375526577296","3","-0.33518824","0.4405331","9.423578","agitation","1"
"14375546452229","3","-0.29927522","0.4237737","9.507375","agitation","1"
"14375566463771","3","-0.3184288","0.4189853","9.507375","agitation","1"
"14375586452785","3","-0.28491","0.40701428","9.516952","agitation","1"
"14375606380763","3","-0.30885202","0.3878607","9.370906","agitation","1"
"14375626339259","3","-0.32800564","0.33518824","9.445126","agitation","1"
"14375646297755","3","-0.36631286","0.44532153","9.440337","agitation","1"
"14375666286769","3","-0.35194764","0.49559975","9.5385","agitation","1"
"14375686245265","3","-0.25378537","0.4357447","9.528923","agitation","1"
"14375706163152","3","-0.272939","0.46686932","9.481039","agitation","1"
"14375726192775","3","-0.260968","0.4333505","9.452309","agitation","1"
"14375746073422","3","-0.32321724","0.40940848","9.459491","agitation","1"
"14375766109767","3","-0.29209262","0.4309563","9.481039","agitation","1"
"14375786068263","3","-0.32321724","0.4381389","9.473856","agitation","1"
"14375805981037","3","-0.2825158","0.36870706","9.481039","agitation","1"
"14375826015773","3","-0.23702596","0.46926352","9.476251","agitation","1"
"14375845974269","3","-0.30645782","0.37349546","9.485827","agitation","1"
"14375865932765","3","-0.2873042","0.4261679","9.44752","agitation","1"
"14375885863037","3","-0.29688102","0.4333505","9.464279","agitation","1"
"14375905796691","3","-0.2896984","0.4285621","9.478644","agitation","1"
"14375925805652","3","-0.33518824","0.4381389","9.466674","agitation","1"
"14375945717960","3","-0.30885202","0.4429273","9.485827","agitation","1"
"14375965704845","3","-0.33758244","0.40940848","9.442732","agitation","1"
"14375985686460","3","-0.3184288","0.4261679","9.483433","agitation","1"
"14376005601883","3","-0.34237084","0.45489833","9.476251","agitation","1"
"14376025631252","3","-0.32561144","0.4213795","9.469068","agitation","1"
"14376045620265","3","-0.33279404","0.4333505","9.471462","agitation","1"
"14376065548244","3","-0.2873042","0.40940848","9.457097","agitation","1"
"14376085537257","3","-0.35434186","0.4405331","9.485827","agitation","1"
"14376105495753","3","-0.34237084","0.40701428","9.481039","agitation","1"
"14376125454250","3","-0.36152446","0.44532153","9.502586","agitation","1"
"14376145412746","3","-0.33997664","0.4213795","9.509769","agitation","1"
"14376165371242","3","-0.34237084","0.44771573","9.52174","agitation","1"
"14376185255537","3","-0.33518824","0.4309563","9.457097","agitation","1"
"14376205288234","3","-0.320823","0.4261679","9.457097","agitation","1"
"14376225167190","3","-0.32321724","0.4237737","9.44752","agitation","1"
"14376245144844","3","-0.30645782","0.39983168","9.44752","agitation","1"
"14376265163722","3","-0.30166942","0.4213795","9.461885","agitation","1"
"14376285057306","3","-0.29927522","0.39983168","9.483433","agitation","1"
"14376305111232","3","-0.30885202","0.41180268","9.495404","agitation","1"
"14376325069728","3","-0.2873042","0.4165911","9.488221","agitation","1"
"14376344960383","3","-0.30406362","0.45250413","9.469068","agitation","1"
"14376365017238","3","-0.31603462","0.45250413","9.454702","agitation","1"
"14376384975734","3","-0.33758244","0.51475334","9.437943","agitation","1"
"14376404842921","3","-0.29927522","0.50517654","9.471462","agitation","1"
"14376424787844","3","-0.30166942","0.39743748","9.500193","agitation","1"
"14376444851222","3","-0.2657564","0.40940848","9.442732","agitation","1"
"14376464728460","3","-0.31364042","0.40701428","9.423578","agitation","1"
"14376484768214","3","-0.29688102","0.4165911","9.495404","agitation","1"
"14376504600536","3","-0.36631286","0.4189853","9.49301","agitation","1"
"14376524685207","3","-0.34715924","0.47644615","9.509769","agitation","1"
"14376544532344","3","-0.34476504","0.37349546","9.49301","agitation","1"
"14376564602199","3","-0.33997664","0.3878607","9.425972","agitation","1"
"14376584560695","3","-0.28491","0.37588966","9.461885","agitation","1"
"14376604549709","3","-0.32321724","0.35434186","9.457097","agitation","1"
"14376624505344","3","-0.30406362","0.44771573","9.457097","agitation","1"
"14376644386036","3","-0.2896984","0.36391866","9.507375","agitation","1"
"14376664455714","3","-0.33279404","0.39983168","9.44752","agitation","1"
"14376684339382","3","-0.3184288","0.41180268","9.495404","agitation","1"
"14376704372707","3","-0.29209262","0.36870706","9.459491","agitation","1"
"14376724331203","3","-0.33518824","0.33279404","9.497798","agitation","1"
"14376744172229","3","-0.28491","0.47884035","9.536105","agitation","1"
"14376764278712","3","-0.36152446","0.49799395","9.394848","agitation","1"
"14376784237209","3","-0.29448682","0.45968673","9.52174","agitation","1"
"14376804195705","3","-0.28491","0.4189853","9.485827","agitation","1"
"14376824154201","3","-0.29688102","0.4141969","9.421184","agitation","1"
"14376844112697","3","-0.32321724","0.4213795","9.466674","agitation","1"
"14376864071193","3","-0.2896984","0.4261679","9.464279","agitation","1"
"14376884029689","3","-0.3184288","0.40940848","9.481039","agitation","1"
"14376903962844","3","-0.31364042","0.45489833","9.478644","agitation","1"
"14376923946681","3","-0.31603462","0.40222588","9.469068","agitation","1"
"14376943905177","3","-0.30166942","0.4429273","9.469068","agitation","1"
"14376963894191","3","-0.33039984","0.4213795","9.49301","agitation","1"
"14376983748844","3","-0.3184288","0.38307226","9.488221","agitation","1"
"14377003811183","3","-0.2896984","0.45010993","9.49301","agitation","1"
"14377023670344","3","-0.30166942","0.39264908","9.445126","agitation","1"
"14377043683344","3","-0.33997664","0.4357447","9.442732","agitation","1"
"14377063600305","3","-0.2777274","0.4309563","9.471462","agitation","1"
"14377083592613","3","-0.32561144","0.40222588","9.483433","agitation","1"
"14377103512690","3","-0.31364042","0.4189853","9.473856","agitation","1"
"14377123592677","3","-0.29448682","0.4141969","9.485827","agitation","1"
"14377143581691","3","-0.34715924","0.44532153","9.469068","agitation","1"
"14377163540187","3","-0.31603462","0.4189853","9.490616","agitation","1"
"14377183498683","3","-0.3184288","0.4261679","9.469068","agitation","1"
"14377203392421","3","-0.33758244","0.4405331","9.497798","agitation","1"
"14377223415675","3","-0.30885202","0.4333505","9.488221","agitation","1"
"14377243302074","3","-0.34476504","0.4333505","9.481039","agitation","1"
"14377263246997","3","-0.31124622","0.4285621","9.488221","agitation","1"
"14377283321681","3","-0.32321724","0.4333505","9.461885","agitation","1"
"14377303280177","3","-0.30406362","0.4333505","9.476251","agitation","1"
"14377323238673","3","-0.30166942","0.4237737","9.481039","agitation","1"
"14377343105997","3","-0.30885202","0.4333505","9.461885","agitation","1"
"14377363155666","3","-0.30406362","0.4309563","9.478644","agitation","1"
"14377383114162","3","-0.30406362","0.4285621","9.478644","agitation","1"
"14377403088613","3","-0.30645782","0.4309563","9.473856","agitation","1"
"14377423048420","3","-0.30885202","0.4285621","9.459491","agitation","1"
"14377443019151","3","-0.31364042","0.4261679","9.478644","agitation","1"
"14377463009181","3","-0.30645782","0.4213795","9.483433","agitation","1"
"14377482923190","3","-0.31603462","0.4213795","9.478644","agitation","1"
"14377502892690","3","-0.31603462","0.4141969","9.473856","agitation","1"
"14377522829266","3","-0.31364042","0.4213795","9.469068","agitation","1"
"14377542870997","3","-0.31364042","0.4141969","9.464279","agitation","1"
"14377562832179","3","-0.30885202","0.4285621","9.469068","agitation","1"
"14377582790675","3","-0.3184288","0.4261679","9.473856","agitation","1"
"14377602749171","3","-0.31364042","0.4237737","9.452309","agitation","1"
"14377622707668","3","-0.30645782","0.4237737","9.466674","agitation","1"
"14377642666164","3","-0.30406362","0.4309563","9.483433","agitation","1"
"14377662624660","3","-0.320823","0.4285621","9.476251","agitation","1"
"14377682583156","3","-0.320823","0.4189853","9.461885","agitation","1"
"14377702572170","3","-0.31124622","0.4213795","9.464279","agitation","1"
"14377722456997","3","-0.31603462","0.4309563","9.471462","agitation","1"
"14377742382997","3","-0.3184288","0.4189853","9.469068","agitation","1"
"14377762350420","3","-0.31603462","0.4237737","9.476251","agitation","1"
"14377782406154","3","-0.32561144","0.4213795","9.483433","agitation","1"
"14377802329420","3","-0.31603462","0.4213795","9.481039","agitation","1"
"14377822206882","3","-0.320823","0.4189853","9.471462","agitation","1"
"14377842312160","3","-0.30885202","0.4165911","9.473856","agitation","1"
"14377862160805","3","-0.31124622","0.4381389","9.471462","agitation","1"
"14377882165035","3","-0.31603462","0.4309563","9.476251","agitation","1"
"14377902104805","3","-0.30166942","0.4261679","9.473856","agitation","1"
"14377922086459","3","-0.31364042","0.4213795","9.471462","agitation","1"
"14377942104640","3","-0.32800564","0.4261679","9.464279","agitation","1"
"14377962063136","3","-0.31364042","0.4261679","9.473856","agitation","1"
"14377981975382","3","-0.31124622","0.4261679","9.473856","agitation","1"
"14378001980128","3","-0.31364042","0.4237737","9.469068","agitation","1"
"14378021969142","3","-0.31603462","0.4213795","9.469068","agitation","1"
"14378041865074","3","-0.31603462","0.4261679","9.476251","agitation","1"
"14378061779574","3","-0.30885202","0.4237737","9.476251","agitation","1"
"14378081759112","3","-0.32321724","0.4189853","9.469068","agitation","1"
"14378101772609","3","-0.32321724","0.4261679","9.466674","agitation","1"
"14378121686343","3","-0.3184288","0.4237737","9.478644","agitation","1"
"14378141689601","3","-0.3184288","0.4261679","9.485827","agitation","1"
"14378161568997","3","-0.31124622","0.4141969","9.473856","agitation","1"
"14378181637111","3","-0.31364042","0.4213795","9.466674","agitation","1"
"14378201595607","3","-0.3184288","0.4213795","9.473856","agitation","1"
"14378221554103","3","-0.3184288","0.4309563","9.459491","agitation","1"
"14378241543117","3","-0.30885202","0.4285621","9.464279","agitation","1"
"14378261393727","3","-0.30645782","0.4285621","9.471462","agitation","1"
"14378281401266","3","-0.30406362","0.4237737","9.466674","sit up","1"
"14378301292881","3","-0.30645782","0.4285621","9.471462","sit up","1"
"14378321407619","3","-0.31124622","0.4261679","9.469068","sit up","1"
"14378341281689","3","-0.31124622","0.4165911","9.469068","sit up","1"
"14378361220843","3","-0.31124622","0.4237737","9.483433","sit up","1"
"14378381160650","3","-0.30645782","0.4285621","9.476251","sit up","1"
"14378401127958","3","-0.3184288","0.4213795","9.478644","sit up","1"
"14378421082035","3","-0.30645782","0.4237737","9.481039","sit up","1"
"14378441068304","3","-0.31124622","0.4357447","9.464279","sit up","1"
"14378460988343","3","-0.3184288","0.4261679","9.481039","sit up","1"
"14378480954958","3","-0.3184288","0.4213795","9.476251","sit up","1"
"14378500928227","3","-0.31603462","0.4309563","9.466674","sit up","1"
"14378520992580","3","-0.30406362","0.4237737","9.473856","sit up","1"
"14378540852612","3","-0.3184288","0.4285621","9.473856","sit up","1"
"14378560849227","3","-0.31124622","0.4213795","9.466674","sit up","1"
"14378580778343","3","-0.31364042","0.4309563","9.473856","sit up","1"
"14378600760420","3","-0.31603462","0.4357447","9.488221","sit up","1"
"14378620668766","3","-0.30885202","0.4333505","9.478644","sit up","1"
"14378640761112","3","-0.31364042","0.4261679","9.483433","sit up","1"
"14378660620920","3","-0.31603462","0.4261679","9.454702","sit up","1"
"14378680548035","3","-0.31603462","0.4261679","9.466674","sit up","1"
"14378700542150","3","-0.31364042","0.4213795","9.485827","sit up","1"
"14378720608058","3","-0.3184288","0.4285621","9.485827","sit up","1"
"14378740469689","3","-0.31603462","0.4333505","9.469068","sit up","1"
"14378760525050","3","-0.30885202","0.4285621","9.473856","sit up","1"
"14378780342112","3","-0.32321724","0.4213795","9.466674","sit up","1"
"14378800442043","3","-0.3184288","0.4189853","9.464279","sit up","1"
"14378820267150","3","-0.3184288","0.4213795","9.483433","sit up","1"
"14378840245958","3","-0.30885202","0.4165911","9.471462","sit up","1"
"14378860288112","3","-0.31603462","0.4309563","9.485827","sit up","1"
"14378880156342","3","-0.31603462","0.4165911","9.469068","sit up","1"
"14378900126189","3","-0.32321724","0.4213795","9.464279","sit up","1"
"14378920223537","3","-0.31603462","0.4261679","9.478644","sit up","1"
"14378940031419","3","-0.30885202","0.4237737","9.459491","sit up","1"
"14378960043304","3","-0.3184288","0.4165911","9.478644","sit up","1"
"14378980053881","3","-0.33039984","0.4237737","9.476251","sit up","1"
"14379000080612","3","-0.320823","0.4237737","9.495404","sit up","1"
"14379020046535","3","-0.31364042","0.4333505","9.476251","sit up","1"
"14379039974513","3","-0.31124622","0.40701428","9.469068","sit up","1"
"14379059963527","3","-0.3184288","0.40940848","9.471462","sit up","1"
"14379079852650","3","-0.320823","0.4333505","9.461885","sit up","1"
"14379099730073","3","-0.30406362","0.4429273","9.516952","sit up","1"
"14379119669535","3","-0.2896984","0.45250413","9.469068","sit up","1"
"14379139797511","3","-0.2873042","0.4237737","9.459491","sit up","1"
"14379159671381","3","-0.33997664","0.4213795","9.478644","sit up","1"
"14379179687958","3","-0.2896984","0.48841715","9.52174","sit up","1"
"14379199566804","3","-0.33039984","0.46447513","9.545682","sit up","1"
"14379219549919","3","-0.32800564","0.4285621","9.469068","sit up","1"
"14379239589992","3","-0.31603462","0.39504328","9.476251","sit up","1"
"14379259477919","3","-0.2896984","0.46208093","9.433155","sit up","1"
"14379279506073","3","-0.272939","0.47884035","9.469068","sit up","1"
"14379299465480","3","-0.2825158","0.4261679","9.507375","sit up","1"
"14379319423976","3","-0.25378537","0.39983168","9.495404","sit up","1"
"14379339382472","3","-0.28491","0.4213795","9.428367","sit up","1"
"14379359306227","3","-0.2801216","0.4261679","9.500193","sit up","1"
"14379379242227","3","-0.31603462","0.4309563","9.476251","sit up","1"
"14379399288478","3","-0.30645782","0.46926352","9.457097","sit up","1"
"14379419246974","3","-0.320823","0.4381389","9.478644","sit up","1"
"14379439205470","3","-0.320823","0.4189853","9.500193","sit up","1"
"14379459163966","3","-0.29448682","0.4333505","9.459491","sit up","1"
"14379478990688","3","-0.25378537","0.47165772","9.404425","sit up","1"
"14379498955650","3","-0.2753332","0.59855044","9.275137","sit up","1"
"14379519039455","3","-0.18195933","0.47644615","9.763555","sit up","1"
"14379539028468","3","-0.2777274","0.2825158","9.636662","sit up","1"
"14379558986964","3","-0.33997664","0.37110126","9.536105","sit up","1"
"14379578945461","3","-0.25857377","0.35673606","9.43076","sit up","1"
"14379598903957","3","-0.23702596","0.39264908","9.361329","sit up","1"
"14379618717842","3","-0.2825158","0.41180268","9.478644","sit up","1"
"14379638700957","3","-0.25857377","0.4189853","9.495404","sit up","1"
"14379658670496","3","-0.23942018","0.4141969","9.490616","sit up","1"
"14379678636419","3","-0.24420857","0.37110126","9.466674","sit up","1"
"14379698666226","3","-0.24420857","0.3878607","9.476251","sit up","1"
"14379718620996","3","-0.25139117","0.36391866","9.464279","sit up","1"
"14379738613429","3","-0.2777274","0.36631286","9.469068","sit up","1"
"14379758602443","3","-0.28491","0.37349546","9.464279","sit up","1"
"14379778529380","3","-0.2657564","0.36870706","9.485827","sit up","1"
"14379798472957","3","-0.260968","0.35913026","9.473856","sit up","1"
"14379818462188","3","-0.29448682","0.33997664","9.464279","sit up","1"
"14379838307957","3","-0.29209262","0.28491","9.519346","sit up","1"
"14379858250880","3","-0.19632454","0.581791","9.622296","sit up","1"
"14379878383937","3","-0.16280572","0.5770026","9.442732","sit up","1"
"14379898297149","3","-0.18914193","0.36391866","9.308656","sit up","1"
"14379918331447","3","-0.23223756","0.5267244","9.423578","sit up","1"
"14379938289943","3","-0.22505496","0.35194764","9.495404","sit up","1"
"14379958278957","3","-0.23702596","0.44532153","9.469068","sit up","1"
"14379978207457","3","-0.2753332","0.36870706","9.512163","sit up","1"
"14379998092765","3","-0.23702596","0.37588966","9.471462","sit up","1"
"14380018154445","3","-0.2777274","0.37828386","9.488221","sit up","1"
"14380038083880","3","-0.22744916","0.4285621","9.478644","sit up","1"
"14380058049534","3","-0.24420857","0.45010993","9.469068","sit up","1"
"14380078029933","3","-0.25617957","0.4285621","9.469068","sit up","1"
"14380097863611","3","-0.25139117","0.37110126","9.452309","sit up","1"
"14380117810765","3","-0.30885202","0.39743748","9.478644","sit up","1"
"14380137782765","3","-0.25857377","0.38067806","9.514558","sit up","1"
"14380157795995","3","-0.2753332","0.33758244","9.488221","sit up","1"
"14380177698534","3","-0.2705448","0.35913026","9.473856","sit up","1"
"14380197699765","3","-0.23702596","0.37110126","9.466674","sit up","1"
"14380217769923","3","-0.2777274","0.37349546","9.466674","sit up","1"
"14380237722765","3","-0.2657564","0.38067806","9.483433","sit up","1"
"14380257609072","3","-0.23463176","0.38067806","9.485827","sit up","1"
"14380277591688","3","-0.24899697","0.36631286","9.466674","sit up","1"
"14380297573188","3","-0.19393034","0.40222588","9.473856","sit up","1"
"14380317635726","3","0.035913024","0.36391866","9.394848","sit up","1"
"14380337612453","3","-0.40462008","0.4141969","9.3421755","sit up","1"
"14380357570949","3","-0.06464344","0.37588966","9.502586","sit up","1"
"14380377529445","3","-0.36631286","0.4165911","9.409213","sit up","1"
"14380397349841","3","-0.1436521","0.49799395","9.481039","sit up","1"
"14380417281841","3","-0.2753332","0.44771573","9.459491","sit up","1"
"14380437251995","3","-0.22984336","0.2873042","9.471462","sit up","1"
"14380457311803","3","-0.25617957","0.38307226","9.457097","sit up","1"
"14380477137264","3","-0.29209262","0.36391866","9.488221","sit up","1"
"14380497249904","3","-0.2777274","0.35434186","9.507375","sit up","1"
"14380517084341","3","-0.24660277","0.39264908","9.461885","sit up","1"
"14380537166896","3","-0.23702596","0.3854665","9.457097","sit up","1"
"14380557125392","3","-0.32321724","0.45010993","9.514558","sit up","1"
"14380576945995","3","-0.17956513","0.34237084","9.440337","sit up","1"
"14380596915341","3","-0.34476504","0.34476504","9.495404","sit up","1"
"14380616826226","3","-0.19153613","0.35434186","9.497798","sit up","1"
"14380636989894","3","-0.29688102","0.38067806","9.485827","sit up","1"
"14380656944072","3","-0.2681506","0.32800564","9.437943","sit up","1"
"14380676786918","3","-0.25617957","0.45729253","9.483433","sit up","1"
"14380696724264","3","-0.30406362","0.320823","9.552865","sit up","1"
"14380716683687","3","-0.29209262","0.4357447","9.454702","sit up","1"
"14380736671533","3","-0.25139117","0.37349546","9.490616","sit up","1"
"14380756669803","3","-0.25857377","0.34715924","9.509769","sit up","1"
"14380776790920","3","-0.22505496","0.40701428","9.459491","sit up","1"
"14380796718898","3","-0.28491","0.34955344","9.461885","sit up","1"
"14380816562495","3","-0.2873042","0.36152446","9.495404","sit up","1"
"14380836535995","3","-0.272939","0.35434186","9.507375","sit up","1"
"14380856602726","3","-0.25378537","0.37588966","9.488221","sit up","1"
"14380876502495","3","-0.2825158","0.35434186","9.44752","sit up","1"
"14380896521187","3","-0.25139117","0.33758244","9.483433","sit up","1"
"14380916331687","3","-0.2681506","0.35194764","9.428367","sit up","1"
"14380936294803","3","-0.21068975","0.46686932","9.469068","sit up","1"
"14380956227764","3","-0.18914193","0.35673606","9.500193","sit up","1"
"14380976345363","3","-0.24660277","0.37828386","9.440337","sit up","1"
"14380996251264","3","-0.21068975","0.39264908","9.466674","sit up","1"
"14381016130033","3","-0.24899697","0.40462008","9.469068","sit up","1"
"14381036226802","3","-0.21308395","0.37588966","9.471462","sit up","1"
"14381056209865","3","-0.23223756","0.37828386","9.490616","sit up","1"
"14381076168361","3","-0.24660277","0.34955344","9.466674","sit up","1"
"14381095952841","3","-0.23223756","0.36391866","9.466674","sit up","1"
"14381116042495","3","-0.22744916","0.33997664","9.471462","sit up","1"
"14381135963033","3","-0.25139117","0.36391866","9.466674","sit up","1"
"14381156032863","3","-0.260968","0.38067806","9.464279","sit up","1"
"14381175793456","3","-0.24899697","0.37828386","9.473856","sit up","1"
"14381195807918","3","-0.25378537","0.36391866","9.471462","sit up","1"
"14381215828110","3","-0.25857377","0.36870706","9.478644","sit up","1"
"14381235714610","3","-0.24899697","0.36870706","9.466674","sit up","1"
"14381255688033","3","-0.2633622","0.38067806","9.481039","sit up","1"
"14381275783839","3","-0.24899697","0.3878607","9.485827","sit up","1"
"14381295764571","3","-0.24660277","0.35913026","9.469068","sit up","1"
"14381315620148","3","-0.25378537","0.37828386","9.485827","sit up","1"
"14381335720363","3","-0.25857377","0.3878607","9.483433","sit up","1"
"14381355628456","3","-0.25139117","0.37349546","9.476251","sit up","1"
"14381375625418","3","-0.24660277","0.37110126","9.49301","sit up","1"
"14381395558648","3","-0.25378537","0.36152446","9.476251","sit up","1"
"14381415430610","3","-0.25378537","0.37588966","9.469068","sit up","1"
"14381435512843","3","-0.25617957","0.35913026","9.476251","sit up","1"
"14381455501857","3","-0.25857377","0.35913026","9.466674","sit up","1"
"14381475324418","3","-0.24899697","0.36152446","9.490616","sit up","1"
"14381495370341","3","-0.24660277","0.36391866","9.478644","sit up","1"
"14381515344956","3","-0.24181437","0.36152446","9.476251","sit up","1"
"14381535250956","3","-0.24899697","0.35913026","9.478644","sit up","1"
"14381555238302","3","-0.25139117","0.36631286","9.471462","sit up","1"
"14381575238071","3","-0.33518824","0.32561144","9.600749","sit up","1"
"14381595241847","3","-0.25378537","0.37588966","9.44752","sit up","1"
"14381615022956","3","-0.24899697","0.35673606","9.490616","sit up","1"
"14381635158839","3","-0.260968","0.37110126","9.471462","sit up","1"
"14381655130648","3","-0.24181437","0.35434186","9.481039","sit up","1"
"14381675047110","3","-0.24660277","0.37828386","9.485827","sit up","1"
"14381695079571","3","-0.31364042","0.39264908","9.64145","sit up","1"
"14381714853148","3","-0.29688102","0.3184288","9.452309","sit up","1"
"14381734845687","3","-0.20829555","0.4213795","9.459491","sit up","1"
"14381754767840","3","-0.23942018","0.36631286","9.485827","sit up","1"
"14381774785917","3","-0.25617957","0.35673606","9.500193","sit up","1"
"14381794776187","3","-0.24660277","0.36870706","9.469068","sit up","1"
"14381814846339","3","-0.35194764","0.30645782","9.346964","sit up","1"
"14381834658533","3","-0.20350714","0.37110126","9.41879","sit up","1"
"14381854584225","3","-0.2633622","0.30406362","9.483433","sit up","1"
"14381874752345","3","-0.23223756","0.35913026","9.414001","sit up","1"
"14381894693263","3","-0.25378537","0.37110126","9.464279","sit up","1"
"14381914667725","3","-0.24660277","0.35913026","9.481039","sit up","1"
"14381934688869","3","-0.23463176","0.36631286","9.478644","sit up","1"
"14381954510340","3","-0.24660277","0.37110126","9.481039","sit up","1"
"14381974431571","3","-0.24181437","0.36152446","9.473856","sit up","1"
"14381994493225","3","-0.25139117","0.35673606","9.476251","sit up","1"
"14382014353917","3","-0.24660277","0.34237084","9.471462","sit up","1"
"14382034369648","3","-0.25378537","0.37588966","9.461885","sit up","1"
"14382054255186","3","-0.25378537","0.36631286","9.473856","sit up","1"
"14382074367824","3","-0.25617957","0.35194764","9.483433","sit up","1"
"14382094312686","3","-0.25378537","0.37828386","9.469068","sit up","1"
"14382114284816","3","-0.25617957","0.35913026","9.473856","sit up","1"
"14382134158263","3","-0.25378537","0.36152446","9.464279","sit up","1"
"14382154088725","3","-0.2657564","0.36631286","9.485827","sit up","1"
"14382174132879","3","-0.24899697","0.35673606","9.488221","sit up","1"
"14382193993994","3","-0.25857377","0.36391866","9.485827","sit up","1"
"14382213961955","3","-0.24660277","0.36870706","9.490616","sit up","1"
"14382233960840","3","-0.25139117","0.37349546","9.483433","sit up","1"
"14382253846186","3","-0.24660277","0.36391866","9.476251","sit up","1"
"14382273852994","3","-0.24181437","0.35913026","9.478644","stand up","1"
"14382293837455","3","-0.24181437","0.35673606","9.483433","stand up","1"
"14382313684686","3","-0.25139117","0.35913026","9.490616","stand up","1"
"14382333656340","3","-0.24181437","0.34237084","9.473856","stand up","1"
"14382353710109","3","-0.24660277","0.36391866","9.464279","stand up","1"
"14382373669917","3","-0.24420857","0.37110126","9.473856","stand up","1"
"14382393696917","3","-0.25139117","0.35913026","9.478644","stand up","1"
"14382413502301","3","-0.260968","0.37828386","9.483433","stand up","1"
"14382433528994","3","-0.24899697","0.34237084","9.502586","stand up","1"
"14382453471917","3","-0.25617957","0.39743748","9.488221","stand up","1"
"14382473467763","3","-0.260968","0.34715924","9.466674","stand up","1"
"14382493373994","3","-0.260968","0.38067806","9.478644","stand up","1"
"14382513338301","3","-0.25139117","0.37588966","9.473856","stand up","1"
"14382533313724","3","-0.23702596","0.36152446","9.488221","stand up","1"
"14382553252532","3","-0.24899697","0.33997664","9.481039","stand up","1"
"14382573361647","3","-0.25617957","0.36870706","9.469068","stand up","1"
"14382593228494","3","-0.24660277","0.35434186","9.478644","stand up","1"
"14382613338771","3","-0.23942018","0.36152446","9.469068","stand up","1"
"14382633211186","3","-0.24420857","0.36631286","9.473856","stand up","1"
"14382653079224","3","-0.25139117","0.36391866","9.488221","stand up","1"
"14382673054186","3","-0.23463176","0.37110126","9.473856","stand up","1"
"14382693199878","3","-0.272939","0.39264908","9.471462","stand up","1"
"14382713092263","3","-0.24420857","0.37588966","9.488221","stand up","1"
"14382733063878","3","-0.24181437","0.36391866","9.495404","stand up","1"
"14382752933494","3","-0.25617957","0.36391866","9.481039","stand up","1"
"14382772960647","3","-0.25378537","0.37349546","9.488221","stand up","1"
"14382793001340","3","-0.24420857","0.37828386","9.483433","stand up","1"
"14382812979955","3","-0.25378537","0.36870706","9.488221","stand up","1"
"14382832943263","3","-0.24899697","0.35913026","9.476251","stand up","1"
"14382852695801","3","-0.24660277","0.37349546","9.469068","stand up","1"
"14382872671801","3","-0.25378537","0.35913026","9.478644","stand up","1"
"14382892814378","3","-0.23223756","0.36391866","9.497798","stand up","1"
"14382912624109","3","-0.25378537","0.36152446","9.471462","stand up","1"
"14382932544186","3","-0.25378537","0.35913026","9.471462","stand up","1"
"14382952621840","3","-0.24181437","0.36631286","9.469068","stand up","1"
"14382972541109","3","-0.24660277","0.36391866","9.488221","stand up","1"
"14382992585339","3","-0.24899697","0.37110126","9.476251","stand up","1"
"14383012361416","3","-0.25378537","0.36870706","9.478644","stand up","1"
"14383032382378","3","-0.25617957","0.36391866","9.473856","stand up","1"
"14383052329532","3","-0.2633622","0.37588966","9.476251","stand up","1"
"14383072450570","3","-0.23942018","0.34715924","9.476251","stand up","1"
"14383092254032","3","-0.260968","0.36152446","9.461885","stand up","1"
"14383112443416","3","-0.24181437","0.36870706","9.485827","stand up","1"
"14383132218262","3","-0.24181437","0.36391866","9.485827","stand up","1"
"14383152216955","3","-0.24420857","0.38307226","9.481039","stand up","1"
"14383172333647","3","-0.29448682","0.33039984","9.476251","stand up","1"
"14383192348781","3","-0.260968","0.4333505","9.473856","stand up","1"
"14383212307277","3","-0.24420857","0.4405331","9.49301","stand up","1"
"14383232185301","3","-0.20590134","0.32561144","9.445126","stand up","1"
"14383252048685","3","-0.15322891","0.46208093","9.43076","stand up","1"
"14383271988416","3","-0.22505496","0.40222588","9.43076","stand up","1"
"14383292086070","3","-0.47165772","0.51235914","9.634268","stand up","1"
"14383311905839","3","-0.33039984","0.23702596","9.588778","stand up","1"
"14383331869647","3","-0.21068975","0.21787235","9.653421","stand up","1"
"14383351851493","3","-0.32321724","0.45729253","9.442732","stand up","1"
"14383371858147","3","-0.14844051","0.35673606","9.459491","stand up","1"
"14383391822262","3","-0.2777274","0.29927522","9.483433","stand up","1"
"14383411777262","3","-0.20111294","0.32321724","9.40203","stand up","1"
"14383431753955","3","-0.31364042","0.36631286","9.435549","stand up","1"
"14383451866801","3","-0.20590134","0.32800564","9.543288","stand up","1"
"14383471785147","3","-0.260968","0.32321724","9.471462","stand up","1"
"14383491802108","3","-0.2801216","0.36631286","9.469068","stand up","1"
"14383511806789","3","-0.21787235","0.33758244","9.49301","stand up","1"
"14383531706147","3","-0.2681506","0.33997664","9.488221","stand up","1"
"14383551541801","3","-0.24899697","0.33758244","9.452309","stand up","1"
"14383571477454","3","-0.24660277","0.34955344","9.473856","stand up","1"
"14383591609916","3","-0.24660277","0.34237084","9.485827","stand up","1"
"14383611468531","3","-0.25139117","0.34237084","9.469068","stand up","1"
"14383631334762","3","-0.24660277","0.33997664","9.481039","stand up","1"
"14383651516261","3","-0.24420857","0.33997664","9.478644","stand up","1"
"14383671402108","3","-0.24660277","0.34476504","9.469068","stand up","1"
"14383691351454","3","-0.25617957","0.34237084","9.469068","stand up","1"
"14383711223377","3","-0.25617957","0.34237084","9.478644","stand up","1"
"14383731195685","3","-0.25378537","0.33997664","9.471462","stand up","1"
"14383751222570","3","-0.23942018","0.33758244","9.483433","stand up","1"
"14383771138300","3","-0.25617957","0.34476504","9.478644","stand up","1"
"14383791114454","3","-0.25857377","0.34476504","9.471462","stand up","1"
"14383811184230","3","-0.24660277","0.34237084","9.473856","stand up","1"
"14383831076531","3","-0.25139117","0.34715924","9.481039","stand up","1"
"14383850866916","3","-0.24420857","0.34476504","9.485827","stand up","1"
"14383871059718","3","-0.25378537","0.34955344","9.476251","stand up","1"
"14383890974031","3","-0.24899697","0.34476504","9.483433","stand up","1"
"14383910909839","3","-0.25139117","0.33518824","9.478644","stand up","1"
"14383930867185","3","-0.24660277","0.34237084","9.476251","stand up","1"
"14383950832685","3","-0.24899697","0.34715924","9.476251","stand up","1"
"14383970943752","3","-0.25857377","0.34237084","9.473856","stand up","1"
"14383990852339","3","-0.25857377","0.34715924","9.488221","stand up","1"
"14384010860744","3","-0.25378537","0.33279404","9.473856","stand up","1"
"14384030822377","3","-0.24899697","0.35194764","9.471462","stand up","1"
"14384050793839","3","-0.24660277","0.33518824","9.478644","stand up","1"
"14384070766750","3","-0.25378537","0.34715924","9.490616","stand up","1"
"14384090602454","3","-0.25617957","0.34476504","9.481039","stand up","1"
"14384110640223","3","-0.24420857","0.33279404","9.473856","stand up","1"
"14384130625762","3","-0.23702596","0.34715924","9.478644","stand up","1"
"14384150515800","3","-0.24660277","0.34955344","9.481039","stand up","1"
"14384170332146","3","-0.24660277","0.34237084","9.473856","stand up","1"
"14384190392069","3","-0.24899697","0.34237084","9.490616","stand up","1"
"14384210393339","3","-0.25617957","0.33279404","9.476251","stand up","1"
"14384230330031","3","-0.24660277","0.33758244","9.478644","stand up","1"
"14384250196262","3","-0.25139117","0.33758244","9.476251","stand up","1"
"14384270162685","3","-0.24420857","0.34476504","9.469068","stand up","1"
"14384290297069","3","-0.25139117","0.34715924","9.476251","stand up","1"
"14384310072262","3","-0.25139117","0.34476504","9.469068","stand up","1"
"14384330075992","3","-0.24660277","0.33758244","9.473856","stand up","1"
"14384350108608","3","-0.25139117","0.34237084","9.490616","stand up","1"
"14384370040185","3","-0.25139117","0.34237084","9.485827","stand up","1"
"14384390014492","3","-0.25378537","0.34715924","9.473856","stand up","1"
"14384410061183","3","-0.25139117","0.34955344","9.476251","stand up","1"
"14384429826762","3","-0.25378537","0.33039984","9.483433","stand up","1"
"14384450039211","3","-0.24420857","0.34955344","9.481039","stand up","1"
"14384469997707","3","-0.24181437","0.34476504","9.481039","stand up","1"
"14384489761185","3","-0.24899697","0.33279404","9.471462","stand up","1"
"14384509746838","3","-0.25857377","0.34237084","9.469068","stand up","1"
"14384529684569","3","-0.24899697","0.34237084","9.481039","stand up","1"
"14384549640185","3","-0.24420857","0.34237084","9.488221","stand up","1"
"14384569797185","3","-0.25857377","0.33279404","9.466674","stand up","1"
"14384589560838","3","-0.25378537","0.33758244","9.488221","stand up","1"
"14384609516184","3","-0.25617957","0.33518824","9.466674","stand up","1"
"14384629488684","3","-0.24899697","0.34476504","9.473856","stand up","1"
"14384649557800","3","-0.24420857","0.33758244","9.488221","stand up","1"
"14384669505646","3","-0.25617957","0.34715924","9.490616","stand up","1"
"14384689335954","3","-0.260968","0.33758244","9.483433","stand up","1"
"14384709321646","3","-0.25617957","0.33997664","9.471462","stand up","1"
"14384729304223","3","-0.24181437","0.34476504","9.471462","stand up","1"
"14384749265838","3","-0.25139117","0.33758244","9.471462","stand up","1"
"14384769238300","3","-0.25378537","0.34955344","9.481039","stand up","1"
"14384789199031","3","-0.25378537","0.34237084","9.49301","stand up","1"
"14384809256223","3","-0.24660277","0.34715924","9.488221","stand up","1"
"14384829165107","3","-0.260968","0.33997664","9.473856","stand up","1"
"14384849268684","3","-0.24660277","0.34476504","9.481039","stand up","1"
"14384869062607","3","-0.24660277","0.34237084","9.485827","stand up","1"
"14384889006184","3","-0.24899697","0.33518824","9.478644","stand up","1"
"14384908945338","3","-0.25378537","0.34715924","9.49301","stand up","1"
"14384929080953","3","-0.24181437","0.33518824","9.478644","stand up","1"
"14384948911569","3","-0.260968","0.33758244","9.471462","stand up","1"
"14384969051662","3","-0.24899697","0.33518824","9.469068","stand up","1"
"14384988827069","3","-0.25378537","0.34955344","9.478644","stand up","1"
"14385008742530","3","-0.25857377","0.33518824","9.476251","stand up","1"
"14385028874569","3","-0.24660277","0.33518824","9.478644","stand up","1"
"14385048659223","3","-0.25139117","0.34237084","9.476251","stand up","1"
"14385068615915","3","-0.25857377","0.33518824","9.471462","stand up","1"
"14385088596376","3","-0.25617957","0.34237084","9.459491","stand up","1"
"14385108761134","3","-0.25617957","0.33997664","9.481039","stand up","1"
"14385128560530","3","-0.24660277","0.34237084","9.490616","stand up","1"
"14385148701492","3","-0.24660277","0.33518824","9.478644","stand up","1"
"14385168657223","3","-0.24420857","0.34476504","9.457097","stand up","1"
"14385188431799","3","-0.25857377","0.34237084","9.473856","stand up","1"
"14385208560953","3","-0.24899697","0.35194764","9.466674","stand up","1"
"14385228469646","3","-0.25139117","0.34955344","9.466674","stand up","1"
"14385248250030","3","-0.25378537","0.34237084","9.473856","stand up","1"
"14385268225992","3","-0.24181437","0.34237084","9.481039","stand up","1"
"14385288193146","3","-0.24660277","0.33758244","9.464279","stand up","1"
"14385308290030","3","-0.23942018","0.34237084","9.466674","stand up","1"
"14385328208569","3","-0.25857377","0.34476504","9.476251","stand up","1"
"14385348108261","3","-0.25139117","0.33518824","9.473856","stand up","1"
"14385368074453","3","-0.24899697","0.34237084","9.495404","stand up","1"
"14385388029915","3","-0.24420857","0.34715924","9.488221","stand up","1"
"14385408019492","3","-0.24181437","0.33758244","9.473856","stand up","1"
"14385428069145","3","-0.24899697","0.34715924","9.466674","stand up","1"
"14385448074992","3","-0.260968","0.34715924","9.476251","stand up","1"
"14385467963261","3","-0.25378537","0.34237084","9.490616","stand up","1"
"14385487960184","3","-0.24899697","0.33758244","9.483433","stand up","1"
"14385507855222","3","-0.25857377","0.34237084","9.485827","stand up","1"
"14385527881761","3","-0.24660277","0.34237084","9.469068","stand up","1"
"14385547727684","3","-0.25617957","0.33997664","9.461885","stand up","1"
"14385567928615","3","-0.2657564","0.33518824","9.476251","stand up","1"
"14385587887111","3","-0.25857377","0.33997664","9.490616","stand up","1"
"14385607620222","3","-0.23942018","0.33518824","9.485827","stand up","1"
"14385627804103","3","-0.25378537","0.33997664","9.471462","stand up","1"
"14385647653415","3","-0.23942018","0.34237084","9.473856","stand up","1"
"14385667579222","3","-0.25857377","0.32800564","9.485827","stand up","1"
"14385687436684","3","-0.25378537","0.33758244","9.483433","stand up","1"
"14385707513568","3","-0.24899697","0.33279404","9.473856","stand up","1"
"14385727511684","3","-0.25378537","0.34237084","9.481039","stand up","1"
"14385747555080","3","-0.24181437","0.33518824","9.483433","stand up","1"
"14385767348914","3","-0.24899697","0.34476504","9.478644","stand up","1"
"14385787502589","3","-0.25617957","0.33758244","9.461885","stand up","1"
"14385807420491","3","-0.24899697","0.33997664","9.476251","stand up","1"
"14385827203337","3","-0.24899697","0.34237084","9.478644","stand up","1"
"14385847255222","3","-0.24899697","0.35194764","9.490616","stand up","1"
"14385867302607","3","-0.24420857","0.34237084","9.469068","stand up","1"
"14385887205453","3","-0.24420857","0.33758244","9.459491","stand up","1"
"14385907158837","3","-0.25378537","0.33997664","9.469068","stand up","1"
"14385927104645","3","-0.25378537","0.33518824","9.476251","stand up","1"
"14385947022991","3","-0.25139117","0.34476504","9.497798","stand up","1"
"14385967129054","3","-0.24660277","0.33758244","9.481039","stand up","1"
"14385987047760","3","-0.24420857","0.33518824","9.464279","stand up","1"
"14386007076564","3","-0.25617957","0.33518824","9.464279","stand up","1"
"14386026811953","3","-0.25378537","0.33758244","9.469068","stand up","1"
"14386046993556","3","-0.25139117","0.33997664","9.490616","stand up","1"
"14386066893876","3","-0.23942018","0.34476504","9.488221","stand up","1"
"14386086719376","3","-0.24181437","0.33758244","9.471462","stand up","1"
"14386106869045","3","-0.25378537","0.33758244","9.469068","stand up","1"
"14386126827541","3","-0.25378537","0.33518824","9.469068","stand up","1"
"14386146707491","3","-0.25378537","0.34476504","9.476251","stand up","1"
"14386166744533","3","-0.25857377","0.33758244","9.476251","stand up","1"
"14386186479530","3","-0.24181437","0.34715924","9.481039","stand up","1"
"14386206631299","3","-0.24660277","0.33997664","9.481039","stand up","1"
"14386226584337","3","-0.25139117","0.33518824","9.469068","stand up","1"
"14386246544991","3","-0.24420857","0.33758244","9.473856","stand up","1"
"14386266537013","3","-0.24899697","0.34476504","9.483433","stand up","1"
"14386306157160","3","-0.24660277","0.34237084","9.490616","stand up","1"
"14386326115656","3","-0.24181437","0.33758244","9.473856","none","2"
"14386346074152","3","-0.24181437","0.34237084","9.473856","none","2"
"14386366032648","3","-0.25378537","0.33039984","9.473856","none","2"
"14386386021662","3","-0.25378537","0.34715924","9.476251","none","2"
"14386405980158","3","-0.24181437","0.34955344","9.478644","none","2"
"14386425938654","3","-0.24420857","0.33518824","9.49301","none","2"
"14386445897150","3","-0.24899697","0.33279404","9.473856","none","2"
"14386465855646","3","-0.23942018","0.32321724","9.471462","none","2"
"14386485844660","3","-0.24181437","0.33279404","9.466674","none","2"
"14386505803156","3","-0.25857377","0.33039984","9.481039","none","2"
"14386525731134","3","-0.25139117","0.34237084","9.483433","none","2"
"14386545689630","3","-0.25139117","0.33518824","9.49301","none","2"
"14386565648127","3","-0.24899697","0.33518824","9.478644","none","2"
"14386585576105","3","-0.24660277","0.33039984","9.471462","none","2"
"14386605565119","3","-0.260968","0.33758244","9.471462","none","2"
"14386625523615","3","-0.25378537","0.34955344","9.483433","none","2"
"14386645482111","3","-0.25857377","0.33758244","9.483433","none","2"
"14386665440607","3","-0.24899697","0.33997664","9.485827","none","2"
"14386685399103","3","-0.24660277","0.34237084","9.478644","none","2"
"14386705357599","3","-0.25139117","0.33279404","9.469068","none","2"
"14386725316095","3","-0.25378537","0.33997664","9.466674","none","2"
"14386745274591","3","-0.25139117","0.33279404","9.478644","none","2"
"14386765233087","3","-0.24899697","0.33758244","9.483433","none","2"
"14386785191584","3","-0.24660277","0.33758244","9.481039","none","2"
"14386805150080","3","-0.25378537","0.33997664","9.478644","none","2"
"14386825108576","3","-0.25139117","0.33997664","9.481039","none","2"
"14386845067072","3","-0.25378537","0.33518824","9.466674","none","2"
"14386865056086","3","-0.24899697","0.33518824","9.478644","none","2"
"14386885014582","3","-0.23942018","0.33758244","9.495404","none","2"
"14386904973078","3","-0.25378537","0.33279404","9.485827","none","2"
"14386924931574","3","-0.25139117","0.33758244","9.473856","none","2"
"14386944920587","3","-0.25378537","0.34476504","9.464279","none","2"
"14386964879084","3","-0.25139117","0.34237084","9.466674","none","2"
"14386984837580","3","-0.25617957","0.33279404","9.478644","none","2"
"14387004796076","3","-0.23942018","0.33997664","9.473856","none","2"
"14387024754572","3","-0.25378537","0.33997664","9.500193","none","2"
"14387044713068","3","-0.24660277","0.33518824","9.473856","none","2"
"14387064671564","3","-0.25139117","0.33997664","9.466674","none","2"
"14387084630060","3","-0.2681506","0.33039984","9.466674","none","2"
"14387104588556","3","-0.25378537","0.33279404","9.461885","none","2"
"14387124547052","3","-0.25378537","0.34237084","9.485827","none","2"
"14387144475031","3","-0.25139117","0.33039984","9.483433","none","2"
