"Timestamp","Accuracy","Acceleration X","Acceleration Y","Acceleration Z","Label","Cycle"
"119718616230828","3","-0.18780541","1.395127","8.619019","none","0"
"119718636022495","3","0.13318872","1.1891159","8.223764","none","1"
"119718656041974","3","0.3871094","1.6203021","10.051515","none","1"
"119718675979787","3","0.13318872","1.4095","9.919764","none","1"
"119718695881922","3","0.14037514","1.4358503","9.653866","none","1"
"119718715800620","3","0.24577612","1.4454321","9.766453","none","1"
"119718735702755","3","0.15953892","1.4478276","9.488578","none","1"
"119718755603953","3","0.22421682","1.5029236","9.644284","none","1"
"119718775506089","3","0.22182137","1.4190818","9.596374","none","1"
"119718795397182","3","0.21463495","1.4262683","9.79999","none","1"
"119718815299370","3","0.17391181","1.4526186","9.639493","none","1"
"119718835194057","3","0.20744848","1.4837599","9.627516","none","1"
"119718855096193","3","0.209844","1.4622004","9.570024","none","1"
"119718875020255","3","0.19068015","1.4286637","9.701775","none","1"
"119718894922391","3","0.20026207","1.4358503","9.67303","none","1"
"119718914785620","3","0.20744848","1.4526186","9.620329","none","1"
"119718934687755","3","0.20026207","1.4669914","9.632307","none","1"
"119718954622391","3","0.19547111","1.4717823","9.627516","none","1"
"119718974524578","3","0.20265758","1.4574095","9.661052","none","1"
"119718994424318","3","0.21223944","1.4358503","9.627516","none","1"
"119719014326453","3","0.20026207","1.4406412","9.65147","none","1"
"119719034225412","3","0.19307566","1.4430366","9.663447","none","1"
"119719054127547","3","0.20744848","1.4550141","9.665843","none","1"
"119719074018380","3","0.19547111","1.4550141","9.637098","none","1"
"119719093920516","3","0.20265758","1.4334548","9.6562605","none","1"
"119719113838068","3","0.20505303","1.4406412","9.639493","none","1"
"119719133740255","3","0.19786656","1.4502231","9.658657","none","1"
"119719153618328","3","0.20744848","1.4574095","9.646679","none","1"
"119719173520464","3","0.19307566","1.4526186","9.653866","none","1"
"119719193448068","3","0.19068015","1.4478276","9.6562605","none","1"
"119719213350255","3","0.20026207","1.4502231","9.67303","none","1"
"119719233244266","3","0.19307566","1.4406412","9.653866","none","1"
"119719253146453","3","0.209844","1.4430366","9.62991","none","1"
"119719273043745","3","0.19786656","1.4574095","9.62512","none","1"
"119719292945880","3","0.20265758","1.4622004","9.641888","none","1"
"119719312845255","3","0.19307566","1.4406412","9.668239","none","1"
"119719332747391","3","0.19547111","1.4550141","9.6562605","none","1"
"119719352666089","3","0.20265758","1.4382457","9.634702","none","1"
"119719372568224","3","0.19547111","1.4382457","9.637098","none","1"
"119719392459057","3","0.20505303","1.4478276","9.685007","none","1"
"119719412361193","3","0.17391181","1.4574095","9.668239","none","1"
"119719432263485","3","0.19068015","1.4478276","9.637098","none","1"
"119719452165672","3","0.20744848","1.4334548","9.634702","none","1"
"119719472056089","3","0.21223944","1.4382457","9.644284","none","1"
"119719491958172","3","0.19547111","1.4454321","9.653866","none","1"
"119719511887495","3","0.20265758","1.4502231","9.663447","none","1"
"119719531789682","3","0.19786656","1.4526186","9.653866","none","1"
"119719551697495","3","0.20265758","1.4454321","9.634702","none","1"
"119719571591714","3","0.21223944","1.4502231","9.641888","none","1"
"119719591493797","3","0.1882847","1.4526186","9.663447","none","1"
"119719611340932","3","0.19786656","1.4526186","9.646679","none","1"
"119719631243120","3","0.19786656","1.4645959","9.644284","none","1"
"119719651225672","3","0.19786656","1.4526186","9.661052","none","1"
"119719671127807","3","0.18588918","1.4478276","9.6562605","none","1"
"119719691006922","3","0.19547111","1.4430366","9.622725","none","1"
"119719710909057","3","0.21223944","1.4406412","9.644284","none","1"
"119719730822599","3","0.19786656","1.4622004","9.6562605","none","1"
"119719750724787","3","0.1882847","1.4478276","9.663447","none","1"
"119719770641505","3","0.19307566","1.4526186","9.663447","none","1"
"119719790543641","3","0.17870277","1.4454321","9.658657","none","1"
"119719810420047","3","0.21223944","1.4382457","9.649075","none","1"
"119719830322182","3","0.20505303","1.4358503","9.639493","none","1"
"119719850218120","3","0.19547111","1.4550141","9.632307","none","1"
"119719870120255","3","0.19547111","1.4622004","9.641888","none","1"
"119719890016714","3","0.19307566","1.4406412","9.6562605","none","1"
"119719909918849","3","0.20265758","1.4406412","9.644284","none","1"
"119719929843797","3","0.21463495","1.4526186","9.605956","none","1"
"119719949745932","3","0.19547111","1.4478276","9.637098","none","1"
"119719969653589","3","0.18588918","1.4526186","9.670634","none","1"
"119719989555724","3","0.19547111","1.4382457","9.641888","none","1"
"119720009452443","3","0.20744848","1.4502231","9.653866","none","1"
"119720029354578","3","0.20265758","1.4454321","9.62512","none","1"
"119720049248849","3","0.19786656","1.4334548","9.649075","none","1"
"119720069150985","3","0.19547111","1.4454321","9.661052","none","1"
"119720089048328","3","0.19547111","1.4478276","9.653866","none","1"
"119720108950464","3","0.20744848","1.4502231","9.649075","none","1"
"119720128881610","3","0.209844","1.4550141","9.644284","none","1"
"119720148783797","3","0.18109828","1.4478276","9.663447","none","1"
"119720168684057","3","0.20026207","1.4454321","9.6562605","none","1"
"119720188586193","3","0.19307566","1.4454321","9.627516","none","1"
"119720208483849","3","0.20026207","1.459805","9.639493","none","1"
"119720228385985","3","0.19547111","1.4454321","9.658657","none","1"
"119720248280151","3","0.20744848","1.4454321","9.658657","none","1"
"119720268182287","3","0.20505303","1.4478276","9.632307","none","1"
"119720288067026","3","0.18349367","1.4406412","9.639493","none","1"
"119720307969162","3","0.19547111","1.4478276","9.632307","none","1"
"119720327877026","3","0.19786656","1.4502231","9.615538","none","1"
"119720347779162","3","0.1882847","1.4622004","9.627516","none","1"
"119720367646766","3","0.20026207","1.4406412","9.646679","none","1"
"119720387548901","3","0.19068015","1.4358503","9.65147","none","1"
"119720407493485","3","0.17870277","1.4454321","9.641888","none","1"
"119720427395672","3","0.19547111","1.4478276","9.65147","none","1"
"119720447301662","3","0.19547111","1.4478276","9.665843","none","1"
"119720467203797","3","0.19786656","1.4310592","9.646679","none","1"
"119720487118432","3","0.19786656","1.459805","9.65147","none","1"
"119720507020620","3","0.19786656","1.459805","9.65147","none","1"
"119720526921141","3","0.19068015","1.4478276","9.653866","none","1"
"119720546823276","3","0.209844","1.4406412","9.641888","none","1"
"119720566743537","3","0.21223944","1.4430366","9.649075","none","1"
"119720586645724","3","0.20505303","1.4478276","9.644284","none","1"
"119720606547964","3","0.19547111","1.4406412","9.663447","none","1"
"119720626450255","3","0.19307566","1.4454321","9.65147","none","1"
"119720646361610","3","0.19547111","1.4430366","9.65147","none","1"
"119720666263953","3","0.20505303","1.459805","9.6562605","none","1"
"119720686181818","3","0.19547111","1.4382457","9.62512","none","1"
"119720706084162","3","0.20744848","1.4406412","9.653866","none","1"
"119720725980099","3","0.20505303","1.4502231","9.682611","none","1"
"119720745882443","3","0.17391181","1.4430366","9.646679","none","1"
"119720765788537","3","0.19068015","1.4382457","9.663447","none","1"
"119720785690880","3","0.19786656","1.4454321","9.649075","none","1"
"119720805586193","3","0.19786656","1.4382457","9.649075","none","1"
"119720825488485","3","0.19786656","1.4358503","9.65147","none","1"
"119720845396662","3","0.19068015","1.4526186","9.639493","none","1"
"119720865298953","3","0.19307566","1.4334548","9.641888","none","1"
"119720885229162","3","0.18588918","1.4382457","9.649075","none","1"
"119720905131505","3","0.19068015","1.4550141","9.675425","none","1"
"119720925013016","3","0.19786656","1.4478276","9.661052","none","1"
"119720944915360","3","0.20026207","1.4502231","9.639493","none","1"
"119720964852495","3","0.19547111","1.4358503","9.661052","none","1"
"119720984754839","3","0.18588918","1.4334548","9.649075","none","1"
"119721004627651","3","0.19068015","1.4382457","9.6562605","none","1"
"119721024529995","3","0.19786656","1.4526186","9.6562605","none","1"
"119721044463328","3","0.19547111","1.4502231","9.634702","none","1"
"119721064365672","3","0.19068015","1.4334548","9.639493","none","1"
"119721084272547","3","0.20505303","1.4454321","9.663447","none","1"
"119721104174891","3","0.1882847","1.4574095","9.65147","none","1"
"119721124086453","3","0.19786656","1.459805","9.646679","none","1"
"119721143988797","3","0.20744848","1.4358503","9.65147","none","1"
"119721163905203","3","0.19307566","1.4478276","9.653866","none","1"
"119721183807547","3","0.19068015","1.459805","9.65147","none","1"
"119721203694266","3","0.209844","1.4478276","9.65147","none","1"
"119721223596610","3","0.19307566","1.4382457","9.641888","none","1"
"119721243526662","3","0.19547111","1.4430366","9.658657","none","1"
"119721263428953","3","0.19307566","1.4622004","9.665843","none","1"
"119721283345516","3","0.18588918","1.4406412","9.658657","none","1"
"119721303247860","3","0.20744848","1.4550141","9.658657","none","1"
"119721323173745","3","0.19068015","1.4478276","9.649075","none","1"
"119721343076037","3","0.20744848","1.4430366","9.653866","none","1"
"119721362965568","3","0.20026207","1.4478276","9.637098","none","1"
"119721382867860","3","0.18349367","1.4478276","9.668239","none","1"
"119721402791193","3","0.1882847","1.4502231","9.668239","none","1"
"119721422693485","3","0.19786656","1.4574095","9.65147","none","1"
"119721442602443","3","0.19307566","1.4358503","9.646679","none","1"
"119721462504787","3","0.20026207","1.4430366","9.658657","none","1"
"119721482385724","3","0.209844","1.4478276","9.641888","none","1"
"119721502288016","3","0.18109828","1.4358503","9.641888","none","1"
"119721522224474","3","0.20026207","1.4430366","9.661052","none","1"
"119721542126766","3","0.19547111","1.4382457","9.661052","none","1"
"119721562034057","3","0.19307566","1.4262683","9.646679","none","1"
"119721581936401","3","0.20505303","1.4430366","9.658657","none","1"
"119721601849787","3","0.209844","1.4550141","9.663447","none","1"
"119721621752130","3","0.20026207","1.4358503","9.637098","none","1"
"119721641639630","3","0.20026207","1.4406412","9.649075","none","1"
"119721661542599","3","0.18109828","1.4406412","9.653866","none","1"
"119721681461089","3","0.20265758","1.4478276","9.641888","none","1"
"119721701364057","3","0.21223944","1.4454321","9.641888","none","1"
"119721721280568","3","0.18588918","1.4574095","9.668239","none","1"
"119721741183485","3","0.18349367","1.4478276","9.661052","none","1"
"119721761072391","3","0.20505303","1.4430366","9.639493","none","1"
"119721780975360","3","0.20505303","1.4430366","9.658657","none","1"
"119721800899370","3","0.18588918","1.4550141","9.639493","none","1"
"119721820802287","3","0.19547111","1.4430366","9.627516","none","1"
"119721840709474","3","0.19068015","1.4550141","9.644284","none","1"
"119721860612443","3","0.20026207","1.4430366","9.653866","none","1"
"119721880526037","3","0.18588918","1.4358503","9.663447","none","1"
"119721900429005","3","0.18588918","1.4454321","9.634702","none","1"
"119721920351453","3","0.20505303","1.4454321","9.649075","none","1"
"119721940254422","3","0.20265758","1.4502231","9.649075","none","1"
"119721960162078","3","0.20505303","1.4502231","9.653866","none","1"
"119721980065047","3","0.20026207","1.4406412","9.627516","none","1"
"119721999978224","3","0.21463495","1.4454321","9.653866","none","1"
"119722019881193","3","0.20265758","1.4502231","9.65147","none","1"
"119722039751453","3","0.1882847","1.4310592","9.649075","none","1"
"119722059654370","3","0.18588918","1.4358503","9.639493","none","1"
"119722079604005","3","0.19547111","1.4454321","9.658657","none","1"
"119722099506974","3","0.19786656","1.4574095","9.65147","none","1"
"119722119387339","3","0.20026207","1.4382457","9.644284","none","1"
"119722139290307","3","0.19786656","1.459805","9.6562605","none","1"
"119722159235568","3","0.17630726","1.4502231","9.639493","none","1"
"119722179138537","3","0.1882847","1.4502231","9.65147","none","1"
"119722199030464","3","0.21223944","1.4430366","9.646679","none","1"
"119722218933432","3","0.19307566","1.4358503","9.646679","none","1"
"119722238858901","3","0.1882847","1.4406412","9.6562605","none","1"
"119722258761870","3","0.18349367","1.4406412","9.653866","none","1"
"119722278672130","3","0.21223944","1.4430366","9.637098","none","1"
"119722298575047","3","0.20744848","1.4478276","9.649075","none","1"
"119722318461401","3","0.19786656","1.4382457","9.661052","none","1"
"119722338364370","3","0.19307566","1.4502231","9.644284","none","1"
"119722358272026","3","0.1882847","1.4526186","9.632307","none","1"
"119722378174995","3","0.19307566","1.4454321","9.649075","none","1"
"119722398077339","3","0.19307566","1.4382457","9.646679","none","1"
"119722417980360","3","0.19786656","1.4478276","9.634702","none","1"
"119722437905099","3","0.20744848","1.4526186","9.649075","none","1"
"119722457808120","3","0.20744848","1.4478276","9.665843","none","1"
"119722477719057","3","0.19307566","1.4358503","9.668239","none","1"
"119722497622026","3","0.1882847","1.4334548","9.653866","none","1"
"119722517529839","3","0.19786656","1.4430366","9.644284","none","1"
"119722537432807","3","0.20744848","1.4574095","9.634702","none","1"
"119722557348745","3","0.20265758","1.4478276","9.663447","none","1"
"119722577251714","3","0.19068015","1.4358503","9.661052","none","1"
"119722597154057","3","0.19307566","1.4238728","9.653866","sit down","1"
"119722617056974","3","0.20026207","1.4310592","9.665843","sit down","1"
"119722636950516","3","0.19307566","1.4454321","9.670634","sit down","1"
"119722656853432","3","0.19307566","1.4526186","9.665843","sit down","1"
"119722676779787","3","0.20265758","1.4382457","9.661052","sit down","1"
"119722696683432","3","0.20265758","1.4430366","9.641888","sit down","1"
"119722716614318","3","0.19068015","1.4454321","9.646679","sit down","1"
"119722736518016","3","0.19786656","1.4334548","9.639493","sit down","1"
"119722756413016","3","0.20265758","1.4406412","9.62991","sit down","1"
"119722776316766","3","0.19786656","1.4502231","9.644284","sit down","1"
"119722796209005","3","0.18349367","1.4430366","9.665843","sit down","1"
"119722816112703","3","0.19547111","1.4430366","9.6562605","sit down","1"
"119722836019787","3","0.19786656","1.4526186","9.639493","sit down","1"
"119722855923485","3","0.17630726","1.4262683","9.6562605","sit down","1"
"119722875836297","3","0.18588918","1.4334548","9.65147","sit down","1"
"119722895739943","3","0.2170304","1.4454321","9.641888","sit down","1"
"119722915642287","3","0.20505303","1.4526186","9.644284","sit down","1"
"119722935545985","3","0.19786656","1.4358503","9.641888","sit down","1"
"119722955486610","3","0.18349367","1.4334548","9.646679","sit down","1"
"119722975390307","3","0.20505303","1.4334548","9.632307","sit down","1"
"119722995271037","3","0.20265758","1.4478276","9.649075","sit down","1"
"119723015174735","3","0.19068015","1.4454321","9.661052","sit down","1"
"119723035082547","3","0.19068015","1.4382457","9.6562605","sit down","1"
"119723054986193","3","0.20026207","1.4478276","9.637098","sit down","1"
"119723074918797","3","0.20265758","1.4406412","9.62991","sit down","1"
"119723094822495","3","0.19307566","1.4382457","9.65147","sit down","1"
"119723114731766","3","0.19547111","1.4382457","9.646679","sit down","1"
"119723134635412","3","0.19547111","1.4574095","9.639493","sit down","1"
"119723154459162","3","0.18588918","1.4502231","9.6562605","sit down","1"
"119723174362860","3","0.19547111","1.4430366","9.6562605","sit down","1"
"119723194345047","3","0.20505303","1.4406412","9.62991","sit down","1"
"119723214248693","3","0.19547111","1.4550141","9.617934","sit down","1"
"119723234079162","3","0.20265758","1.4454321","9.639493","sit down","1"
"119723253982860","3","0.19307566","1.4478276","9.668239","sit down","1"
"119723273932235","3","0.1882847","1.4550141","9.646679","sit down","1"
"119723293835932","3","0.19307566","1.4310592","9.646679","sit down","1"
"119723313753589","3","0.20265758","1.4262683","9.644284","sit down","1"
"119723333657235","3","0.20744848","1.4502231","9.622725","sit down","1"
"119723353587495","3","0.20026207","1.4502231","9.665843","sit down","1"
"119723373491193","3","0.19307566","1.4502231","9.663447","sit down","1"
"119723393361974","3","0.18349367","1.4454321","9.641888","sit down","1"
"119723413265672","3","0.21942586","1.4238728","9.644284","sit down","1"
"119723433132651","3","0.2170304","1.4310592","9.646679","sit down","1"
"119723453036297","3","0.19307566","1.4550141","9.641888","sit down","1"
"119723472994214","3","0.1715163","1.4693869","9.632307","sit down","1"
"119723492897912","3","0.19547111","1.4023135","9.601165","sit down","1"
"119723512819839","3","0.22900784","1.3975226","9.737708","sit down","1"
"119723532723537","3","0.19068015","1.4981327","9.661052","sit down","1"
"119723552613380","3","0.19786656","1.4286637","9.574815","sit down","1"
"119723572517130","3","0.18349367","1.3567994","9.622725","sit down","1"
"119723592434839","3","0.17870277","1.4837599","9.706566","sit down","1"
"119723612338485","3","0.260149","1.4765733","9.689797","sit down","1"
"119723632269839","3","0.18349367","1.4190818","9.661052","sit down","1"
"119723652173537","3","0.17391181","1.4118955","9.510137","sit down","1"
"119723672054891","3","0.18349367","1.4214773","9.69938","sit down","1"
"119723691958641","3","0.2553581","1.4382457","9.661052","sit down","1"
"119723711849110","3","0.19068015","1.4765733","9.634702","sit down","1"
"119723731753120","3","0.15714347","1.4334548","9.677821","sit down","1"
"119723751671922","3","0.19068015","1.4262683","9.677821","sit down","1"
"119723771575880","3","0.22182137","1.4454321","9.562838","sit down","1"
"119723791505880","3","0.20505303","1.4406412","9.65147","sit down","1"
"119723811409943","3","0.17870277","1.4382457","9.682611","sit down","1"
"119723831336141","3","0.19547111","1.4334548","9.665843","sit down","1"
"119723851240151","3","0.20505303","1.4406412","9.632307","sit down","1"
"119723871114787","3","0.19786656","1.4526186","9.649075","sit down","1"
"119723891018745","3","0.20744848","1.4262683","9.658657","sit down","1"
"119723910959214","3","0.20744848","1.4310592","9.646679","sit down","1"
"119723930863172","3","0.20265758","1.4262683","9.627516","sit down","1"
"119723950742547","3","0.20026207","1.4645959","9.627516","sit down","1"
"119723970646557","3","0.18588918","1.4406412","9.639493","sit down","1"
"119723990545568","3","0.20744848","1.4262683","9.728126","sit down","1"
"119724010449630","3","0.1715163","1.4622004","9.701775","sit down","1"
"119724030381557","3","0.20744848","1.4358503","9.498159","sit down","1"
"119724050285516","3","0.15714347","1.4622004","9.584397","sit down","1"
"119724070172651","3","0.16432989","1.4166863","9.761662","sit down","1"
"119724090076610","3","0.19068015","1.4334548","9.658657","sit down","1"
"119724109977443","3","0.24338073","1.3759633","9.567629","sit down","1"
"119724129881401","3","0.21463495","1.4837599","9.665843","sit down","1"
"119724149783172","3","0.19307566","1.3615904","9.522115","sit down","1"
"119724169687130","3","0.22421682","1.304099","9.615538","sit down","1"
"119724189595776","3","0.23379874","1.3520085","9.6562605","sit down","1"
"119724209499787","3","0.16432989","1.3160763","9.713753","sit down","1"
"119724229403432","3","0.16912085","1.2969124","9.72573","sit down","1"
"119724249307443","3","0.18588918","1.2466074","9.685007","sit down","1"
"119724269241818","3","0.22661233","1.2226527","9.562838","sit down","1"
"119724289145828","3","0.22661233","1.1915114","9.661052","sit down","1"
"119724309017339","3","0.12360674","1.0669465","9.857482","sit down","1"
"119724328921297","3","0.049346924","0.8034439","9.907787","sit down","1"
"119724348843901","3","0.003832817","0.8321897","9.989233","sit down","1"
"119724368747912","3","-0.053658664","1.3711723","9.845504","sit down","1"
"119724388635360","3","0.051742375","1.1771386","9.589188","sit down","1"
"119724408539318","3","0.19786656","0.7890711","9.768848","sit down","1"
"119724428454526","3","0.16912085","1.1316245","9.852691","sit down","1"
"119724448358485","3","-0.01533097","1.3376356","9.79999","sit down","1"
"119724468265985","3","-0.12552297","1.3112854","9.819154","sit down","1"
"119724488169995","3","-0.106359184","1.5580196","9.668239","sit down","1"
"119724508073485","3","0.0014373064","1.9892057","9.593979","sit down","1"
"119724527977495","3","0.12360674","2.3844597","9.589188","sit down","1"
"119724547856766","3","0.20026207","2.3269682","9.617934","sit down","1"
"119724567760776","3","0.2553581","2.005974","9.332871","sit down","1"
"119724587685880","3","0.18109828","1.8454771","8.90408","sit down","1"
"119724607589839","3","0.19547111","2.4419513","9.340057","sit down","1"
"119724627491974","3","0.24338073","3.071962","9.946114","sit down","1"
"119724647395932","3","0.16912085","3.0072844","9.742498","sit down","1"
"119724667301297","3","0.15474796","2.8923013","8.985527","sit down","1"
"119724687205255","3","0.35596812","3.0480072","8.815448","sit down","1"
"119724707093016","3","0.5619793","3.0527983","9.066974","sit down","1"
"119724726997026","3","0.40387774","2.7773182","9.124465","sit down","1"
"119724746918693","3","0.2553581","2.4826744","9.335267","sit down","1"
"119724766822651","3","0.23379874","2.200008","9.62991","sit down","1"
"119724786733120","3","0.260149","1.9772283","9.67303","sit down","1"
"119724806637130","3","0.3032676","1.7879856","9.553256","sit down","1"
"119724826524682","3","0.35117722","1.6634207","9.483787","sit down","1"
"119724846428589","3","0.33201337","1.6083248","9.462228","sit down","1"
"119724866346610","3","0.2960812","1.395127","9.570024","sit down","1"
"119724886250620","3","0.27931285","1.2370255","9.7353115","sit down","1"
"119724906132235","3","0.25775355","1.289726","9.790408","sit down","1"
"119724926036245","3","0.1715163","1.3376356","9.816758","sit down","1"
"119724945938120","3","0.12600225","1.354404","9.833527","sit down","1"
"119724965842078","3","0.09965193","1.3639858","9.790408","sit down","1"
"119724985778224","3","0.104442954","1.2969124","9.658657","sit down","1"
"119725005682182","3","0.21223944","1.2969124","9.574815","sit down","1"
"119725025550516","3","0.2385897","1.5268784","9.534092","sit down","1"
"119725045454474","3","0.23140323","1.8023585","9.620329","sit down","1"
"119725065386870","3","0.18588918","1.9197369","9.634702","sit down","1"
"119725085290880","3","0.11881584","1.9197369","9.617934","sit down","1"
"119725105180307","3","0.14037514","1.9101549","9.644284","sit down","1"
"119725125084266","3","0.1667254","1.8718274","9.519719","sit down","1"
"119725145000047","3","0.17391181","1.8406861","9.548465","sit down","1"
"119725164904057","3","0.16193438","1.8334996","9.637098","sit down","1"
"119725184787912","3","0.11881584","1.795172","9.646679","sit down","1"
"119725204691870","3","0.14756149","1.7496579","9.682611","sit down","1"
"119725224590620","3","0.19786656","1.8023585","9.62512","sit down","1"
"119725244494578","3","0.18109828","1.8215222","9.560442","sit down","1"
"119725264425099","3","0.17630726","1.7496579","9.634702","sit down","1"
"119725284329110","3","0.17630726","1.7352849","9.567629","sit down","1"
"119725304210568","3","0.19307566","1.7352849","9.601165","sit down","1"
"119725324114526","3","0.18588918","1.7233076","9.653866","sit down","1"
"119725344022182","3","0.17391181","1.7280986","9.634702","sit down","1"
"119725363926141","3","0.21463495","1.7089347","9.579606","sit down","1"
"119725383834839","3","0.23619425","1.6969573","9.538883","sit down","1"
"119725403738745","3","0.20265758","1.7209122","9.507742","sit down","1"
"119725423652182","3","0.19307566","1.7185167","9.610746","sit down","1"
"119725443556089","3","0.16193438","1.6945618","9.627516","sit down","1"
"119725463467287","3","0.17870277","1.7137257","9.613143","sit down","1"
"119725483371193","3","0.19786656","1.7616353","9.59877","sit down","1"
"119725503259943","3","0.20265758","1.8167313","9.596374","sit down","1"
"119725523163849","3","0.18588918","1.8358951","9.560442","sit down","1"
"119725543102703","3","0.1882847","1.799963","9.57242","sit down","1"
"119725563006610","3","0.18588918","1.7352849","9.62512","sit down","1"
"119725582901349","3","0.1715163","1.7376804","9.62512","sit down","1"
"119725602805255","3","0.1451661","1.8071493","9.605956","sit down","1"
"119725622686870","3","0.17870277","1.8766183","9.596374","sit down","1"
"119725642590776","3","0.21463495","1.8766183","9.610746","sit down","1"
"119725662494682","3","0.25775355","1.8598499","9.565233","sit down","1"
"119725682398589","3","0.23619425","1.8287088","9.478996","sit down","1"
"119725702330932","3","0.209844","1.7568443","9.632307","sit down","1"
"119725722234891","3","0.1715163","1.7424715","9.685007","sit down","1"
"119725742127339","3","0.17630726","1.7760082","9.582001","sit down","1"
"119725762031245","3","0.1715163","1.7903811","9.541278","sit down","1"
"119725781923224","3","0.20744848","1.7640307","9.586792","sit down","1"
"119725801827182","3","0.21942586","1.7784036","9.574815","sit down","1"
"119725821723589","3","0.19068015","1.7831945","9.589188","sit down","1"
"119725841627495","3","0.17391181","1.7376804","9.634702","sit down","1"
"119725861522495","3","0.18109828","1.7328895","9.593979","sit down","1"
"119725881426349","3","0.18349367","1.740076","9.57721","sit down","1"
"119725901370516","3","0.17630726","1.7352849","9.608352","sit down","1"
"119725921274474","3","0.19068015","1.7424715","9.62991","sit down","1"
"119725941142755","3","0.18349367","1.7640307","9.605956","sit down","1"
"119725961046714","3","0.19068015","1.7592398","9.593979","sit down","1"
"119725980990307","3","0.19547111","1.7640307","9.570024","sit down","1"
"119726000894214","3","0.18349367","1.7927765","9.610746","sit down","1"
"119726020757287","3","0.15953892","1.7975675","9.620329","sit down","1"
"119726040669526","3","0.19307566","1.7712172","9.601165","sit down","1"
"119726060588849","3","0.19547111","1.7736127","9.579606","sit down","1"
"119726080492755","3","0.20744848","1.78559","9.555651","sit down","1"
"119726100421297","3","0.19786656","1.7975675","9.57242","sit down","1"
"119726120325255","3","0.18349367","1.780799","9.601165","sit down","1"
"119726140231349","3","0.17630726","1.7927765","9.613143","sit down","1"
"119726160135307","3","0.19547111","1.78559","9.622725","sit down","1"
"119726180043120","3","0.19068015","1.7736127","9.608352","sit down","1"
"119726199947026","3","0.19547111","1.7544489","9.601165","sit down","1"
"119726219833068","3","0.22182137","1.7520534","9.579606","sit down","1"
"119726239736974","3","0.1882847","1.7736127","9.579606","sit down","1"
"119726259656089","3","0.18109828","1.7784036","9.634702","sit down","1"
"119726279560047","3","0.1882847","1.7760082","9.608352","sit down","1"
"119726299455932","3","0.19547111","1.7712172","9.60356","sit down","1"
"119726319359839","3","0.18349367","1.7760082","9.601165","sit down","1"
"119726339249630","3","0.18349367","1.7616353","9.582001","sit down","1"
"119726359153537","3","0.18109828","1.7376804","9.59877","sit down","1"
"119726379050776","3","0.19307566","1.7209122","9.613143","sit down","1"
"119726398954682","3","0.19307566","1.7328895","9.605956","sit down","1"
"119726418863797","3","0.18349367","1.780799","9.589188","sit down","1"
"119726438767755","3","0.18109828","1.8119403","9.589188","sit down","1"
"119726458684422","3","0.19068015","1.7975675","9.634702","sit down","1"
"119726478588380","3","0.20265758","1.7879856","9.632307","sit down","1"
"119726498486505","3","0.19307566","1.7831945","9.591583","sit down","1"
"119726518390412","3","0.1882847","1.7903811","9.562838","sit down","1"
"119726538280307","3","0.1882847","1.7903811","9.591583","sit down","1"
"119726558184214","3","0.19307566","1.8023585","9.57721","sit down","1"
"119726578093172","3","0.19547111","1.7831945","9.601165","sit down","1"
"119726597997078","3","0.19068015","1.7688217","9.60356","lay down","1"
"119726617926922","3","0.1882847","1.7664262","9.584397","lay down","1"
"119726637830828","3","0.18588918","1.7496579","9.596374","lay down","1"
"119726657723693","3","0.209844","1.7592398","9.60356","lay down","1"
"119726677627651","3","0.18588918","1.7712172","9.613143","lay down","1"
"119726697503068","3","0.1882847","1.7784036","9.615538","lay down","1"
"119726717406974","3","0.19547111","1.7640307","9.62512","lay down","1"
"119726737319526","3","0.19068015","1.7688217","9.584397","lay down","1"
"119726757223432","3","0.17870277","1.7831945","9.589188","lay down","1"
"119726777109318","3","0.16912085","1.780799","9.59877","lay down","1"
"119726797013224","3","0.20026207","1.7879856","9.627516","lay down","1"
"119726816947130","3","0.19786656","1.7784036","9.591583","lay down","1"
"119726836851037","3","0.19547111","1.7616353","9.60356","lay down","1"
"119726856753016","3","0.19068015","1.7664262","9.570024","lay down","1"
"119726876656922","3","0.20265758","1.7640307","9.582001","lay down","1"
"119726896507755","3","0.19068015","1.7760082","9.62991","lay down","1"
"119726916411662","3","0.20505303","1.7544489","9.615538","lay down","1"
"119726936359735","3","0.209844","1.7640307","9.553256","lay down","1"
"119726956263641","3","0.19068015","1.7712172","9.641888","lay down","1"
"119726976134839","3","0.20026207","1.7257031","9.641888","lay down","1"
"119726996038745","3","0.23619425","1.6921664","9.553256","lay down","1"
"119727015982651","3","0.24338073","1.6059293","9.593979","lay down","1"
"119727035886610","3","0.2170304","1.6682116","9.668239","lay down","1"
"119727055762078","3","0.21463495","1.8358951","9.560442","lay down","1"
"119727075665932","3","0.1715163","1.9293188","9.615538","lay down","1"
"119727095570672","3","0.14756149","1.965251","9.65147","lay down","1"
"119727115474474","3","0.15953892","1.8981776","9.529301","lay down","1"
"119727135397860","3","0.17391181","1.7616353","9.512533","lay down","1"
"119727155301714","3","0.15474796","1.7233076","9.546069","lay down","1"
"119727175204943","3","0.15953892","1.6753981","9.637098","lay down","1"
"119727195108745","3","0.1667254","1.3639858","9.823945","lay down","1"
"119727215006610","3","0.23140323","1.064551","9.847899","lay down","1"
"119727234893693","3","0.18109828","1.2873305","9.749685","lay down","1"
"119727254797547","3","0.056533396","1.9484826","9.790408","lay down","1"
"119727274704214","3","-0.10156822","2.0466974","9.72573","lay down","1"
"119727294608068","3","0.039765","1.1100652","9.62512","lay down","1"
"119727314517287","3","0.50688326","1.1316245","9.570024","lay down","1"
"119727334421089","3","0.3966912","2.58568","9.407132","lay down","1"
"119727354355203","3","0.056533396","3.0743575","9.4909725","lay down","1"
"119727374259005","3","0.109233916","3.0120752","9.2466345","lay down","1"
"119727394127443","3","0.3368044","2.7892957","8.492059","lay down","1"
"119727414031245","3","0.53323364","2.4179966","8.530386","lay down","1"
"119727433938224","3","0.3966912","1.9365052","9.1939335","lay down","1"
"119727453842078","3","0.17870277","1.7280986","9.67303","lay down","1"
"119727473749630","3","-0.034494817","1.680189","10.212012","lay down","1"
"119727493653432","3","-0.12073207","1.7328895","10.437187","lay down","1"
"119727513556662","3","-0.020121932","1.7831945","10.109007","lay down","1"
"119727533460464","3","0.11881584","1.6706071","9.562838","lay down","1"
"119727553364162","3","0.1667254","1.5149009","9.289753","lay down","1"
"119727573267964","3","0.260149","1.294517","9.658657","lay down","1"
"119727593179266","3","0.25056714","1.2178617","9.764058","lay down","1"
"119727613083068","3","0.14756149","1.5053191","9.649075","lay down","1"
"119727632981610","3","0.080488145","1.5436467","9.692194","lay down","1"
"119727652885412","3","0.051742375","1.5460422","9.759267","lay down","1"
"119727672803276","3","-0.0081445575","2.005974","9.696984","lay down","1"
"119727692707078","3","-0.08959085","2.4467423","9.538883","lay down","1"
"119727712602547","3","-0.060845137","2.535375","9.488578","lay down","1"
"119727732506401","3","-0.06324053","2.029929","9.421504","lay down","1"
"119727752422495","3","-0.010540068","1.5125054","9.433482","lay down","1"
"119727772326297","3","-0.07521796","1.4717823","9.565233","lay down","1"
"119727792228016","3","-0.16864163","1.6131155","9.502951","lay down","1"
"119727812131818","3","0.054137886","1.7496579","9.67303","lay down","1"
"119727832039110","3","0.23140323","1.5053191","9.613143","lay down","1"
"119727851942964","3","0.09965193","1.2681668","9.150815","lay down","1"
"119727871845985","3","0.3487817","1.4933417","9.313708","lay down","1"
"119727891749787","3","0.6194707","1.7831945","9.390363","lay down","1"
"119727911671766","3","0.4733466","1.7927765","9.186748","lay down","1"
"119727931575620","3","0.22900784","2.0227425","9.4239","lay down","1"
"119727951468328","3","0.84464574","3.0000978","9.565233","lay down","1"
"119727971372182","3","0.705708","4.2361646","8.9759445","lay down","1"
"119727991281089","3","-0.11594111","5.196751","7.536263","lay down","1"
"119728011184891","3","0.21463495","6.0423555","6.84876","lay down","1"
"119728031090099","3","0.92369664","6.21483","7.282342","lay down","1"
"119728050993901","3","1.4195606","4.353543","8.532782","lay down","1"
"119728070922547","3","2.26756","2.7701318","10.039537","lay down","1"
"119728090826349","3","2.4352436","2.7485726","10.825254","lay down","1"
"119728110707026","3","1.6591085","2.7749228","10.044329","lay down","1"
"119728130610828","3","1.5177752","2.7749228","9.3520355","lay down","1"
"119728150537599","3","1.3213459","2.1497028","9.764058","lay down","1"
"119728170441453","3","1.1368941","1.4310592","10.547379","lay down","1"
"119728190326245","3","1.4938205","1.2082798","10.52582","lay down","1"
"119728210230047","3","1.436329","1.2825396","9.57721","lay down","1"
"119728230134578","3","1.1464761","1.3783587","9.02625","lay down","1"
"119728250038432","3","1.4339336","1.4430366","9.282567","lay down","1"
"119728269975985","3","1.4171652","1.5412512","9.6562605","lay down","1"
"119728289880203","3","1.160849","1.2777487","9.665843","lay down","1"
"119728309745776","3","1.1752218","0.99747765","9.665843","lay down","1"
"119728329649891","3","1.2806228","1.2490029","9.761662","lay down","1"
"119728349605568","3","1.1392896","1.574788","9.368804","lay down","1"
"119728369509735","3","1.1225213","1.5891608","9.169979","lay down","1"
"119728389390985","3","1.1129394","1.7113302","9.534092","lay down","1"
"119728409295151","3","1.0554479","1.7927765","9.737708","lay down","1"
"119728429205776","3","1.0147247","1.7544489","9.730521","lay down","1"
"119728449109943","3","1.0913801","1.7544489","9.558047","lay down","1"
"119728469012807","3","1.2949957","1.9005731","9.596374","lay down","1"
"119728488916922","3","1.330928","2.0898159","9.689797","lay down","1"
"119728508819005","3","1.2949957","2.346132","9.502951","lay down","1"
"119728528723224","3","1.4195606","2.525793","9.265798","lay down","1"
"119728548659787","3","1.7932552","2.449138","9.495764","lay down","1"
"119728568563953","3","1.9968711","2.180844","9.82634","lay down","1"
"119728588428224","3","1.6902498","1.9508781","9.622725","lay down","1"
"119728608332391","3","1.3141598","1.8909911","9.217889","lay down","1"
"119728628260360","3","0.84464574","2.0970025","9.057392","lay down","1"
"119728648164526","3","0.53083813","2.171262","9.069369","lay down","1"
"119728668077130","3","0.35836363","2.0035787","9.241844","lay down","1"
"119728687981297","3","0.22182137","1.8406861","9.421504","lay down","1"
"119728707882078","3","0.3008721","1.914946","9.565233","lay down","1"
"119728727786245","3","0.45657825","2.0035787","9.608352","lay down","1"
"119728747696193","3","0.67935777","1.8909911","9.409527","lay down","1"
"119728767600360","3","0.7320583","1.7975675","9.102906","lay down","1"
"119728787523432","3","0.6601939","1.7616353","9.124465","lay down","1"
"119728807427651","3","0.5715612","1.5005281","9.586792","lay down","1"
"119728827337391","3","0.40866876","1.3520085","10.061097","lay down","1"
"119728847241557","3","0.36794555","1.4813644","10.094634","lay down","1"
"119728867116089","3","0.53323364","1.5771835","9.696984","lay down","1"
"119728887020255","3","0.7488266","1.6730026","9.340057","lay down","1"
"119728906932182","3","0.8422502","1.7568443","9.258612","lay down","1"
"119728926836297","3","0.820691","1.7280986","9.311312","lay down","1"
"119728946737026","3","0.88057804","1.6921664","9.447855","lay down","1"
"119728966641193","3","0.8590187","1.8574544","9.534092","lay down","1"
"119728986572443","3","0.75122213","2.0874205","9.402341","lay down","1"
"119729006476610","3","0.81350446","2.2742677","9.136442","lay down","1"
"119729026360880","3","0.9093238","2.240731","9.009481","lay down","1"
"119729046264995","3","0.7464311","1.9628555","9.213098","lay down","1"
"119729066171245","3","0.6218662","1.8071493","9.665843","lay down","1"
"119729086075360","3","0.5164653","1.61072","10.087447","lay down","1"
"119729105977391","3","0.41825068","1.4957372","10.032351","lay down","1"
"119729125881557","3","0.54521096","1.5915563","9.548465","lay down","1"
"119729145777495","3","0.6985216","1.6179066","9.27538","lay down","1"
"119729165681610","3","0.655403","1.4693869","9.481391","lay down","1"
"119729185615464","3","0.5595839","1.3208672","9.795198","lay down","1"
"119729205519630","3","0.5643748","1.3304492","9.9796505","lay down","1"
"119729225417026","3","0.71049905","1.4071045","9.898205","lay down","1"
"119729245321193","3","0.92848754","1.5963472","9.546069","lay down","1"
"119729265237026","3","0.9117191","1.8095448","9.332871","lay down","1"
"119729285141193","3","0.8087137","1.8718274","9.488578","lay down","1"
"119729305047860","3","0.7296628","1.7664262","9.811967","lay down","1"
"119729324952235","3","0.67935777","1.6490479","9.816758","lay down","1"
"119729344849474","3","0.61467993","1.7424715","9.620329","lay down","1"
"119729364753849","3","0.67696226","1.7712172","9.505346","lay down","1"
"119729384677287","3","0.7751769","1.459805","9.507742","lay down","1"
"119729404581610","3","0.76319957","1.7257031","9.555651","lay down","1"
"119729424461870","3","0.6889397","2.2167764","9.459832","lay down","1"
"119729444366193","3","0.6074934","2.525793","9.174769","lay down","1"
"119729464309057","3","0.6530075","1.61072","9.414318","lay down","1"
"119729484213432","3","0.6841488","1.3088899","9.931741","lay down","1"
"119729504098693","3","0.6937306","1.8550589","9.646679","lay down","1"
"119729524003120","3","0.770386","1.780799","9.445458","lay down","1"
"119729543931245","3","0.7847589","1.5388558","9.457437","lay down","1"
"119729563835620","3","0.67696226","1.565206","9.658657","lay down","1"
"119729583745151","3","0.6027025","1.6418613","9.778431","lay down","1"
"119729603649422","3","0.67696226","1.6490479","9.634702","lay down","1"
"119729623539526","3","0.8087137","1.4885507","9.536487","lay down","1"
"119729643443901","3","0.8733915","1.3400311","9.531696","lay down","1"
"119729663348224","3","0.7943407","1.4478276","9.555651","lay down","1"
"119729683252599","3","0.70810354","1.6993529","9.59877","lay down","1"
"119729703128849","3","0.7368493","1.7760082","9.574815","lay down","1"
"119729723033224","3","0.7344538","1.8239177","9.459832","lay down","1"
"119729742976714","3","0.7248719","1.8071493","9.474205","lay down","1"
"119729762881141","3","0.7440356","1.7376804","9.601165","lay down","1"
"119729782778016","3","0.76799047","1.7927765","9.718544","lay down","1"
"119729802682391","3","0.80152714","1.8430816","9.550859","lay down","1"
"119729822606714","3","0.7919452","1.8382906","9.433482","lay down","1"
"119729842511089","3","0.6865443","1.8071493","9.593979","lay down","1"
"119729862385828","3","0.62905276","1.7089347","9.749685","lay down","1"
"119729882290203","3","0.6865443","1.6203021","9.586792","lay down","1"
"119729902189630","3","0.76080406","1.6131155","9.416713","lay down","1"
"119729922094005","3","0.7416402","1.61072","9.488578","lay down","1"
"119729942024787","3","0.6817533","1.5915563","9.589188","lay down","1"
"119729961929162","3","0.6817533","1.6203021","9.593979","lay down","1"
"119729981813224","3","0.71529007","1.6562343","9.565233","lay down","1"
"119730001717651","3","0.7320583","1.6921664","9.536487","lay down","1"
"119730021653797","3","0.75122213","1.7257031","9.567629","lay down","1"
"119730041558120","3","0.75361764","1.7280986","9.613143","lay down","1"
"119730061448745","3","0.72008085","1.740076","9.601165","lay down","1"
"119730081353120","3","0.71529007","1.7664262","9.584397","lay down","1"
"119730101245985","3","0.7272674","1.7328895","9.596374","lay down","1"
"119730121150360","3","0.7320583","1.7209122","9.57242","lay down","1"
"119730141057912","3","0.7368493","1.7257031","9.531696","lay down","1"
"119730160962287","3","0.71289456","1.7017484","9.550859","lay down","1"
"119730180860880","3","0.72247636","1.6730026","9.579606","lay down","1"
"119730200765255","3","0.7296628","1.6634207","9.531696","lay down","1"
"119730220699057","3","0.7368493","1.6849799","9.500555","lay down","1"
"119730240603485","3","0.7344538","1.6969573","9.536487","lay down","1"
"119730260475724","3","0.71768534","1.6969573","9.546069","lay down","1"
"119730280380099","3","0.7272674","1.6945618","9.555651","lay down","1"
"119730300313641","3","0.7392448","1.6777936","9.59877","lay down","1"
"119730320218068","3","0.7248719","1.680189","9.608352","lay down","1"
"119730340107651","3","0.7296628","1.6897709","9.59877","lay down","1"
"119730360012130","3","0.7392448","1.6969573","9.591583","lay down","1"
"119730379912495","3","0.7344538","1.7017484","9.584397","lay down","1"
"119730399816974","3","0.71289456","1.7089347","9.584397","lay down","1"
"119730419740412","3","0.71049905","1.7185167","9.536487","lay down","1"
"119730439644891","3","0.7272674","1.7161212","9.555651","lay down","1"
"119730459556453","3","0.7296628","1.7089347","9.558047","lay down","1"
"119730479460932","3","0.7368493","1.7017484","9.541278","lay down","1"
"119730499372599","3","0.71289456","1.6897709","9.5436735","lay down","1"
"119730519277130","3","0.71529007","1.6897709","9.567629","lay down","1"
"119730539161453","3","0.71049905","1.6945618","9.591583","lay down","1"
"119730559065932","3","0.7296628","1.6993529","9.57242","lay down","1"
"119730578990047","3","0.7368493","1.7017484","9.5436735","lay down","1"
"119730598894578","3","0.7344538","1.6897709","9.541278","roll side","1"
"119730618748589","3","0.72247636","1.6969573","9.5436735","roll side","1"
"119730638653120","3","0.72008085","1.7161212","9.57242","roll side","1"
"119730658586610","3","0.71289456","1.7161212","9.596374","roll side","1"
"119730678491089","3","0.7009171","1.7089347","9.596374","roll side","1"
"119730698395985","3","0.72247636","1.6945618","9.617934","roll side","1"
"119730718331714","3","0.7320583","1.6730026","9.62991","roll side","1"
"119730738203797","3","0.71768534","1.6897709","9.586792","roll side","1"
"119730758108276","3","0.7296628","1.7065394","9.553256","roll side","1"
"119730778031245","3","0.7344538","1.7113302","9.500555","roll side","1"
"119730797935724","3","0.6961261","1.7065394","9.510137","roll side","1"
"119730817820047","3","0.705708","1.6945618","9.567629","roll side","1"
"119730837724578","3","0.7033125","1.6897709","9.601165","roll side","1"
"119730857628901","3","0.7464311","1.6658161","9.579606","roll side","1"
"119730877533432","3","0.75122213","1.7017484","9.579606","roll side","1"
"119730897431245","3","0.7440356","1.7065394","9.57242","roll side","1"
"119730917335724","3","0.75840855","1.6993529","9.546069","roll side","1"
"119730937270985","3","0.75361764","1.6993529","9.500555","roll side","1"
"119730957175464","3","0.7392448","1.7041439","9.531696","roll side","1"
"119730977093172","3","0.7248719","1.7065394","9.560442","roll side","1"
"119730996997651","3","0.705708","1.6969573","9.591583","roll side","1"
"119731016894474","3","0.7033125","1.7017484","9.582001","roll side","1"
"119731036798953","3","0.71049905","1.6897709","9.57721","roll side","1"
"119731056670724","3","0.72008085","1.7065394","9.570024","roll side","1"
"119731076575255","3","0.72008085","1.7017484","9.574815","roll side","1"
"119731096505099","3","0.72008085","1.6993529","9.574815","roll side","1"
"119731116409578","3","0.7320583","1.7089347","9.582001","roll side","1"
"119731136313224","3","0.7296628","1.6921664","9.60356","roll side","1"
"119731156217703","3","0.72247636","1.7017484","9.615538","roll side","1"
"119731176081766","3","0.7320583","1.7065394","9.57242","roll side","1"
"119731195986245","3","0.7272674","1.7185167","9.558047","roll side","1"
"119731215890255","3","0.72247636","1.7065394","9.560442","roll side","1"
"119731235794787","3","0.7344538","1.6897709","9.565233","roll side","1"
"119731255694839","3","0.7320583","1.6969573","9.548465","roll side","1"
"119731275599318","3","0.7296628","1.6873754","9.550859","roll side","1"
"119731295499005","3","0.7320583","1.7065394","9.548465","roll side","1"
"119731315403537","3","0.7368493","1.7041439","9.570024","roll side","1"
"119731335295672","3","0.72247636","1.7041439","9.586792","roll side","1"
"119731355200203","3","0.7344538","1.6921664","9.593979","roll side","1"
"119731375124787","3","0.7464311","1.6969573","9.584397","roll side","1"
"119731395029318","3","0.7248719","1.6969573","9.596374","roll side","1"
"119731414912807","3","0.71289456","1.6897709","9.60356","roll side","1"
"119731434817339","3","0.72008085","1.7089347","9.529301","roll side","1"
"119731454725099","3","0.7248719","1.7209122","9.5173235","roll side","1"
"119731474629578","3","0.7248719","1.7376804","9.57242","roll side","1"
"119731494525360","3","0.72008085","1.7257031","9.596374","roll side","1"
"119731514429839","3","0.7416402","1.7065394","9.541278","roll side","1"
"119731534351297","3","0.7392448","1.6969573","9.541278","roll side","1"
"119731554255724","3","0.7320583","1.7209122","9.579606","roll side","1"
"119731574138224","3","0.7320583","1.7065394","9.601165","roll side","1"
"119731594042755","3","0.7464311","1.6921664","9.522115","roll side","1"
"119731613936662","3","0.71289456","1.7017484","9.570024","roll side","1"
"119731633841141","3","0.71049905","1.6825844","9.596374","roll side","1"
"119731653738485","3","0.72008085","1.6777936","9.574815","roll side","1"
"119731673642912","3","0.7248719","1.680189","9.548465","roll side","1"
"119731693543328","3","0.7368493","1.6969573","9.550859","roll side","1"
"119731713447860","3","0.7344538","1.6993529","9.57721","roll side","1"
"119731733366922","3","0.7296628","1.7137257","9.593979","roll side","1"
"119731753271245","3","0.705708","1.740076","9.526905","roll side","1"
"119731773180776","3","0.71529007","1.6897709","9.531696","roll side","1"
"119731793085047","3","0.7799679","1.61072","9.567629","roll side","1"
"119731812970099","3","0.76080406","1.6131155","9.593979","roll side","1"
"119731832874318","3","0.76080406","1.6442568","9.718544","roll side","1"
"119731852773641","3","0.7799679","1.6490479","9.742498","roll side","1"
"119731872677860","3","0.7368493","1.6562343","9.529301","roll side","1"
"119731892577026","3","0.6889397","1.6682116","9.5173235","roll side","1"
"119731912481297","3","0.67696226","1.7041439","9.754476","roll side","1"
"119731932383276","3","0.7248719","1.7664262","9.929346","roll side","1"
"119731952287495","3","0.83506393","1.8095448","9.627516","roll side","1"
"119731972193172","3","0.79913163","1.914946","9.22268","roll side","1"
"119731992097443","3","0.67935777","1.9436917","9.289753","roll side","1"
"119732011960516","3","0.6482165","1.7520534","9.74729","roll side","1"
"119732031864735","3","0.6122844","1.6945618","9.970069","roll side","1"
"119732051806662","3","0.5212561","1.7496579","9.680216","roll side","1"
"119732071710932","3","0.53562903","1.6969573","9.2729845","roll side","1"
"119732091598745","3","0.5116743","1.5580196","9.320894","roll side","1"
"119732111502964","3","0.3032676","1.6586297","9.62991","roll side","1"
"119732131404891","3","0.12360674","1.6346749","9.701775","roll side","1"
"119732151309110","3","0.5619793","1.5292739","9.780826","roll side","1"
"119732171226610","3","1.0817981","1.344822","9.960486","roll side","1"
"119732191130880","3","1.2830185","1.2322346","9.936532","roll side","1"
"119732211000985","3","1.2279224","1.3999181","9.615538","roll side","1"
"119732230905255","3","1.151267","1.9197369","9.443064","roll side","1"
"119732250839370","3","1.0243067","2.2670813","9.419108","roll side","1"
"119732270743641","3","1.0219113","2.295827","9.191539","roll side","1"
"119732290644214","3","0.9069283","2.245522","9.181957","roll side","1"
"119732310548485","3","0.67456675","1.9772283","9.251425","roll side","1"
"119732330448589","3","0.33440888","1.5053191","9.433482","roll side","1"
"119732350352860","3","0.41825068","1.5939518","9.823945","roll side","1"
"119732370241505","3","0.84464574","2.0610702","9.888623","roll side","1"
"119732390145776","3","0.8590187","2.075443","9.59877","roll side","1"
"119732410056401","3","0.6577985","2.0275335","9.30652","roll side","1"
"119732429960672","3","0.5979115","2.1736577","9.033437","roll side","1"
"119732449856714","3","0.5739567","2.1592848","8.753166","roll side","1"
"119732469760985","3","0.37034106","1.7568443","8.717234","roll side","1"
"119732489639682","3","0.1715163","1.4334548","9.292149","roll side","1"
"119732509543953","3","0.056533396","1.3280537","10.051515","roll side","1"
"119732529437495","3","-0.04168123","1.2633758","10.247945","roll side","1"
"119732549341714","3","-0.03928578","1.1268334","9.711357","roll side","1"
"119732569241193","3","-0.16385067","1.2681668","9.342454","roll side","1"
"119732589145464","3","-0.49921766","1.2154663","9.519719","roll side","1"
"119732609070776","3","-0.53994083","1.3687768","10.142543","roll side","1"
"119732628975047","3","-0.42256233","1.4406412","10.621639","roll side","1"
"119732648845412","3","-0.18780541","1.5364603","10.3773","roll side","1"
"119732668749630","3","0.027787626","1.8526635","9.685007","roll side","1"
"119732688644787","3","0.645821","1.9939967","9.184352","roll side","1"
"119732708549057","3","1.2327132","1.4933417","9.39755","roll side","1"
"119732728448276","3","1.4507018","1.4574095","9.876645","roll side","1"
"119732748352547","3","1.5393344","1.560415","9.754476","roll side","1"
"119732768245412","3","1.3165549","1.6322795","9.263403","roll side","1"
"119732788149682","3","0.83745944","2.1497028","8.67172","roll side","1"
"119732808058120","3","0.7368493","2.3317592","8.645369","roll side","1"
"119732827962339","3","0.5979115","1.9269234","9.431086","roll side","1"
"119732847893693","3","0.28170836","1.4358503","9.97486","roll side","1"
"119732867797912","3","0.058928847","0.9208224","10.089843","roll side","1"
"119732887689474","3","0.03736949","1.0070596","10.161707","roll side","1"
"119732907593745","3","0.12121129","1.4957372","10.097029","roll side","1"
"119732927492287","3","0.28410387","1.8119403","9.605956","roll side","1"
"119732947396557","3","0.4326235","1.8215222","9.2729845","roll side","1"
"119732967295724","3","0.5044879","1.5771835","9.284962","roll side","1"
"119732987199995","3","0.6362392","1.4286637","9.426295","roll side","1"
"119733007087235","3","0.83506393","1.6849799","9.723335","roll side","1"
"119733026991453","3","0.7440356","2.1017933","9.608352","roll side","1"
"119733046883693","3","0.80152714","2.1041887","9.22268","roll side","1"
"119733066787547","3","1.0530524","1.7304941","9.069369","roll side","1"
"119733086713693","3","0.9213011","1.3424265","9.356827","roll side","1"
"119733106617599","3","0.3368044","1.2346301","9.756871","roll side","1"
"119733126490568","3","0.008623779","1.344822","9.850295","roll side","1"
"119733146394422","3","-0.06563604","1.3615904","9.867063","roll side","1"
"119733166308797","3","-0.35548896","0.85853994","9.82634","roll side","1"
"119733186212599","3","-0.8681213","0.4704724","10.113798","roll side","1"
"119733206129839","3","-0.23811048","1.1627656","10.729436","roll side","1"
"119733226033693","3","0.61707544","1.2969124","10.367718","roll side","1"
"119733245899057","3","0.58114314","1.3807542","9.078951","roll side","1"
"119733265802912","3","0.55000186","1.2825396","8.563923","roll side","1"
"119733285712755","3","0.6074934","1.3879406","9.112488","roll side","1"
"119733305616610","3","0.53562903","1.78559","9.75208","roll side","1"
"119733325522651","3","0.6362392","2.0658612","9.943719","roll side","1"
"119733345426557","3","0.9141146","2.0682566","9.680216","roll side","1"
"119733365315672","3","1.0578433","1.799963","9.155606","roll side","1"
"119733385219526","3","0.94286036","1.8981776","9.177166","roll side","1"
"119733405122182","3","0.53083813","1.7280986","9.4766","roll side","1"
"119733425026037","3","0.24577612","1.560415","9.665843","roll side","1"
"119733444937964","3","0.049346924","1.5843698","9.886227","roll side","1"
"119733464841818","3","-0.15666425","1.4765733","10.109007","roll side","1"
"119733484758901","3","-0.19259644","1.3687768","9.941323","roll side","1"
"119733504662807","3","-0.036890328","1.2082798","9.57242","roll side","1"
"119733524529422","3","0.051742375","1.2178617","9.483787","roll side","1"
"119733544433276","3","0.18109828","1.3975226","9.634702","roll side","1"
"119733564362391","3","0.28170836","1.459805","9.744894","roll side","1"
"119733584266245","3","0.23379874","1.404709","9.627516","roll side","1"
"119733604140985","3","0.21942586","1.3831497","9.498159","roll side","1"
"119733624044839","3","0.28170836","1.3639858","9.558047","roll side","1"
"119733643941766","3","0.32003605","1.4286637","9.694589","roll side","1"
"119733663845620","3","0.44939184","1.459805","9.706566","roll side","1"
"119733683772443","3","0.50209236","1.4645959","9.601165","roll side","1"
"119733703676297","3","0.45657825","1.524483","9.399945","roll side","1"
"119733723567651","3","0.40866876","1.5005281","9.498159","roll side","1"
"119733743471557","3","0.32243156","1.4526186","9.720939","roll side","1"
"119733763378068","3","0.26494002","1.4406412","9.857482","roll side","1"
"119733783281922","3","0.35836363","1.4813644","9.759267","roll side","1"
"119733803175880","3","0.46136928","1.4861552","9.706566","roll side","1"
"119733823079735","3","0.37752748","1.5364603","9.62512","roll side","1"
"119733842974787","3","0.3847139","1.5340649","9.553256","roll side","1"
"119733862878641","3","0.33201337","1.4382457","9.661052","roll side","1"
"119733882767860","3","0.27452183","1.4406412","9.692194","roll side","1"
"119733902671714","3","0.32961786","1.4837599","9.57721","roll side","1"
"119733922574214","3","0.3487817","1.4214773","9.512533","roll side","1"
"119733942478068","3","0.27931285","1.3759633","9.562838","roll side","1"
"119733962371141","3","0.19068015","1.3735678","9.680216","roll side","1"
"119733982274995","3","0.1715163","1.4095","9.706566","roll side","1"
"119734002196245","3","0.2625445","1.4334548","9.680216","roll side","1"
"119734022100099","3","0.3415953","1.4286637","9.582001","roll side","1"
"119734041980724","3","0.32722235","1.4861552","9.57242","roll side","1"
"119734061884578","3","0.31284952","1.524483","9.646679","roll side","1"
"119734081789943","3","0.33440888","1.5268784","9.682611","roll side","1"
"119734101693432","3","0.38231838","1.5125054","9.62512","roll side","1"
"119734121618224","3","0.39190042","1.4741778","9.617934","roll side","1"
"119734141521766","3","0.3871094","1.4957372","9.658657","roll side","1"
"119734161392964","3","0.3966912","1.4885507","9.706566","roll side","1"
"119734181296505","3","0.3871094","1.4430366","9.589188","roll side","1"
"119734201223641","3","0.32482696","1.4526186","9.591583","roll side","1"
"119734221127130","3","0.23379874","1.4789689","9.685007","roll side","1"
"119734241039005","3","0.2553581","1.4502231","9.737708","roll side","1"
"119734260942495","3","0.29129028","1.4071045","9.682611","roll side","1"
"119734280832547","3","0.32722235","1.4190818","9.546069","roll side","1"
"119734300736037","3","0.2960812","1.4574095","9.5436735","roll side","1"
"119734320635568","3","0.3032676","1.4526186","9.59877","roll side","1"
"119734340539057","3","0.30805862","1.459805","9.728126","roll side","1"
"119734360435828","3","0.31045413","1.4741778","9.689797","roll side","1"
"119734380339318","3","0.33919978","1.4909462","9.60356","roll side","1"
"119734400232339","3","0.3895049","1.4645959","9.62512","roll side","1"
"119734420135828","3","0.35117722","1.4789689","9.613143","roll side","1"
"119734440018120","3","0.3487817","1.4693869","9.649075","roll side","1"
"119734459921662","3","0.32722235","1.4813644","9.680216","roll side","1"
"119734479851922","3","0.32243156","1.4981327","9.646679","roll side","1"
"119734499755412","3","0.31524503","1.4526186","9.622725","roll side","1"
"119734519614578","3","0.30805862","1.4382457","9.665843","roll side","1"
"119734539518068","3","0.2625445","1.4574095","9.634702","roll side","1"
"119734559465724","3","0.31284952","1.4741778","9.632307","roll side","1"
"119734579369214","3","0.36555016","1.4478276","9.644284","roll side","1"
"119734599258120","3","0.3056631","1.4526186","9.601165","roll back","1"
"119734619161557","3","0.31764054","1.4478276","9.62991","roll back","1"
"119734639078068","3","0.33201337","1.4502231","9.627516","roll back","1"
"119734658962860","3","0.2984767","1.4885507","9.658657","roll back","1"
"119734678866349","3","0.3368044","1.4909462","9.687403","roll back","1"
"119734698785307","3","0.32961786","1.4574095","9.675425","roll back","1"
"119734718688797","3","0.35117722","1.4693869","9.582001","roll back","1"
"119734738592860","3","0.36075914","1.4622004","9.558047","roll back","1"
"119734758496349","3","0.2960812","1.4574095","9.696984","roll back","1"
"119734778404162","3","0.2936858","1.4789689","9.677821","roll back","1"
"119734798307651","3","0.3032676","1.4837599","9.579606","roll back","1"
"119734818197443","3","0.33440888","1.4741778","9.589188","roll back","1"
"119734838100932","3","0.3415953","1.4622004","9.589188","roll back","1"
"119734857991349","3","0.31045413","1.4334548","9.627516","roll back","1"
"119734877894891","3","0.32243156","1.4622004","9.665843","roll back","1"
"119734897802860","3","0.31764054","1.5149009","9.617934","roll back","1"
"119734917706349","3","0.32722235","1.4861552","9.62991","roll back","1"
"119734937607703","3","0.32003605","1.4430366","9.649075","roll back","1"
"119734957511193","3","0.32482696","1.459805","9.641888","roll back","1"
"119734977417182","3","0.32722235","1.4789689","9.658657","roll back","1"
"119734997320672","3","0.33201337","1.4693869","9.617934","roll back","1"
"119735017225776","3","0.3463863","1.4693869","9.62991","roll back","1"
"119735037129266","3","0.32722235","1.4622004","9.615538","roll back","1"
"119735057016557","3","0.3415953","1.4885507","9.6562605","roll back","1"
"119735076919995","3","0.32961786","1.519692","9.644284","roll back","1"
"119735096830932","3","0.22900784","1.4741778","9.617934","roll back","1"
"119735116734422","3","0.20265758","1.4981327","9.632307","roll back","1"
"119735136631401","3","0.3008721","1.5220875","9.622725","roll back","1"
"119735156534891","3","0.40627325","1.5029236","9.610746","roll back","1"
"119735176412860","3","0.3871094","1.4310592","9.574815","roll back","1"
"119735196316349","3","0.31524503","1.4454321","9.522115","roll back","1"
"119735216217547","3","0.28649938","1.4981327","9.692194","roll back","1"
"119735236121037","3","0.38231838","1.4238728","9.77364","roll back","1"
"119735256022495","3","0.40866876","1.349613","9.663447","roll back","1"
"119735275925985","3","0.37513196","1.4885507","9.524509","roll back","1"
"119735295849474","3","0.40387774","1.5053191","9.617934","roll back","1"
"119735315752964","3","0.3895049","1.4406412","9.680216","roll back","1"
"119735335642964","3","0.47095108","1.5220875","9.582001","roll back","1"
"119735355546505","3","0.6985216","1.5556241","9.431086","roll back","1"
"119735375441610","3","0.6530075","1.3927315","9.435877","roll back","1"
"119735395340724","3","0.015810192","1.3472176","9.60356","roll back","1"
"119735415244214","3","-0.4824493","1.4071045","9.593979","roll back","1"
"119735435140880","3","-0.2812291","1.2082798","10.029956","roll back","1"
"119735455044370","3","0.21463495","1.1986979","10.52582","roll back","1"
"119735474954735","3","0.46616018","1.5364603","10.032351","roll back","1"
"119735494858224","3","0.5164653","1.5580196","9.30652","roll back","1"
"119735514744318","3","0.57874763","1.4813644","9.153211","roll back","1"
"119735534647807","3","0.46136928","1.3184718","9.649075","roll back","1"
"119735554553224","3","0.22900784","1.2537938","9.804781","roll back","1"
"119735574456714","3","0.2673354","1.1603702","9.72573","roll back","1"
"119735594386870","3","0.430228","1.0909013","9.62991","roll back","1"
"119735614290360","3","0.7440356","1.0669465","9.443064","roll back","1"
"119735634180412","3","1.0099337","1.289726","9.102906","roll back","1"
"119735654083901","3","0.5284426","1.4861552","8.983131","roll back","1"
"119735673970516","3","0.19068015","1.2226527","9.510137","roll back","1"
"119735693874005","3","0.20744848","0.7866756","10.341368","roll back","1"
"119735713765724","3","0.6074934","1.019037","10.446769","roll back","1"
"119735733669214","3","0.9117191","1.4190818","9.811967","roll back","1"
"119735753579578","3","0.98358357","1.5053191","9.488578","roll back","1"
"119735773483068","3","0.79913163","1.3735678","9.720939","roll back","1"
"119735793411453","3","0.5284426","1.7831945","9.12207","roll back","1"
"119735813314995","3","0.40387774","2.5018384","8.963968","roll back","1"
"119735833175568","3","-0.0033535957","2.4898608","9.3855715","roll back","1"
"119735853079057","3","0.15953892","2.0562792","9.759267","roll back","1"
"119735872922339","3","0.2984767","1.7137257","9.924555","roll back","1"
"119735892825880","3","0.45178723","1.9365052","9.637098","roll back","1"
"119735912790880","3","0.53323364","1.9916012","9.301731","roll back","1"
"119735932694370","3","0.39190042","1.6969573","9.34964","roll back","1"
"119735952519682","3","-0.0919863","1.6059293","9.414318","roll back","1"
"119735972423224","3","-0.23092407","1.5915563","9.57721","roll back","1"
"119735992365932","3","-0.070427","1.4190818","9.962883","roll back","1"
"119736012269422","3","-9.5808506E-4","1.2561893","9.986836","roll back","1"
"119736032193641","3","-0.01533097","1.2322346","9.610746","roll back","1"
"119736052097130","3","0.06851077","1.3112854","9.567629","roll back","1"
"119736072012651","3","0.27212644","1.2729577","10.077866","roll back","1"
"119736091916141","3","0.41345966","1.3639858","10.188058","roll back","1"
"119736111819787","3","0.3463863","1.5556241","9.802386","roll back","1"
"119736131723276","3","0.26973093","1.7137257","9.457437","roll back","1"
"119736151602078","3","0.23140323","1.7592398","9.083742","roll back","1"
"119736171505620","3","0.5092788","1.7784036","9.081346","roll back","1"
"119736191406714","3","0.76319957","1.574788","9.330476","roll back","1"
"119736211310255","3","0.7727814","1.5508332","9.431086","roll back","1"
"119736231199266","3","0.5595839","1.6274885","9.37599","roll back","1"
"119736251102755","3","0.48532403","1.7161212","9.3520355","roll back","1"
"119736271014839","3","0.5643748","1.6442568","9.622725","roll back","1"
"119736290918328","3","0.4637648","1.3999181","9.902996","roll back","1"
"119736310859787","3","0.66977584","1.3927315","10.00121","roll back","1"
"119736330763328","3","0.7871543","1.4095","10.04912","roll back","1"
"119736350633380","3","0.76319957","1.4190818","9.922159","roll back","1"
"119736370536870","3","0.76559496","1.3088899","9.965278","roll back","1"
"119736390438172","3","0.7009171","1.4622004","9.929346","roll back","1"
"119736410341349","3","0.58114314","1.6921664","9.62991","roll back","1"
"119736430244266","3","0.49011505","1.799963","9.416713","roll back","1"
"119736450147443","3","0.5212561","1.7472625","9.292149","roll back","1"
"119736470076089","3","0.5523974","1.6921664","9.167583","roll back","1"
"119736489979266","3","0.41585517","1.6658161","9.162793","roll back","1"
"119736509854995","3","0.3032676","1.5292739","9.342454","roll back","1"
"119736529758224","3","0.31764054","1.4358503","9.675425","roll back","1"
"119736549661662","3","0.3415953","1.3999181","9.742498","roll back","1"
"119736569564839","3","0.3415953","1.4406412","9.593979","roll back","1"
"119736589497860","3","0.39190042","1.2585849","9.632307","roll back","1"
"119736609401037","3","0.41345966","1.3112854","9.859877","roll back","1"
"119736629302651","3","0.23140323","1.6418613","10.082657","roll back","1"
"119736649205880","3","0.30805862","1.3975226","10.233572","roll back","1"
"119736669080985","3","0.57874763","1.2226527","9.562838","roll back","1"
"119736688984214","3","0.7392448","1.354404","8.93043","roll back","1"
"119736708895360","3","0.7440356","1.5939518","9.392759","roll back","1"
"119736728798589","3","0.53323364","1.4933417","9.955696","roll back","1"
"119736748723380","3","0.46616018","1.4717823","9.60356","roll back","1"
"119736768626557","3","0.480533","1.524483","9.483787","roll back","1"
"119736788500880","3","0.4757421","1.6394658","9.596374","roll back","1"
"119736808404057","3","0.54521096","1.5819744","9.780826","roll back","1"
"119736828348328","3","0.6194707","1.6897709","9.862272","roll back","1"
"119736848251505","3","0.62665725","1.78559","9.251425","roll back","1"
"119736868120828","3","0.7272674","1.6035337","9.184352","roll back","1"
"119736888024005","3","0.49011505","1.5915563","9.828736","roll back","1"
"119736907923485","3","0.37752748","1.5628105","9.7880125","roll back","1"
"119736927826662","3","0.54042006","1.4861552","9.3855715","roll back","1"
"119736947729110","3","0.44220543","1.4717823","9.390363","roll back","1"
"119736967632339","3","0.32003605","1.4406412","9.711357","roll back","1"
"119736987537703","3","0.36315465","1.4622004","9.764058","roll back","1"
"119737007440880","3","0.42304146","1.4741778","9.586792","roll back","1"
"119737027373641","3","0.5044879","1.4358503","9.589188","roll back","1"
"119737047276818","3","0.41106415","1.5101101","9.60356","roll back","1"
"119737067147599","3","0.36794555","1.4909462","9.795198","roll back","1"
"119737087050828","3","0.45178723","1.4526186","9.867063","roll back","1"
"119737106955932","3","0.54281557","1.5436467","9.668239","roll back","1"
"119737126859162","3","0.5667703","1.579579","9.59877","roll back","1"
"119737146764266","3","0.48771954","1.574788","9.665843","roll back","1"
"119737166667443","3","0.42543697","1.6011382","9.665843","roll back","1"
"119737186571349","3","0.45897377","1.574788","9.613143","roll back","1"
"119737206474526","3","0.50209236","1.5292739","9.507742","roll back","1"
"119737226373797","3","0.53802454","1.5436467","9.495764","roll back","1"
"119737246276974","3","0.5164653","1.5364603","9.5436735","roll back","1"
"119737266208432","3","0.5212561","1.5172964","9.567629","roll back","1"
"119737286111610","3","0.50688326","1.5149009","9.57242","roll back","1"
"119737306020932","3","0.49969685","1.519692","9.567629","roll back","1"
"119737325924110","3","0.49969685","1.5005281","9.593979","roll back","1"
"119737345792703","3","0.50209236","1.4909462","9.613143","roll back","1"
"119737365695880","3","0.49490583","1.524483","9.605956","roll back","1"
"119737385603797","3","0.48771954","1.5340649","9.627516","roll back","1"
"119737405506974","3","0.49730134","1.5316694","9.67303","roll back","1"
"119737425444318","3","0.49011505","1.524483","9.634702","roll back","1"
"119737445347703","3","0.4733466","1.5340649","9.637098","roll back","1"
"119737465237078","3","0.47095108","1.560415","9.670634","roll back","1"
"119737485140464","3","0.480533","1.5364603","9.668239","roll back","1"
"119737505033380","3","0.48771954","1.5220875","9.632307","roll back","1"
"119737524936714","3","0.48532403","1.524483","9.639493","roll back","1"
"119737544841245","3","0.4733466","1.5316694","9.639493","roll back","1"
"119737564744630","3","0.4685557","1.5292739","9.60356","roll back","1"
"119737584658068","3","0.44939184","1.5268784","9.555651","roll back","1"
"119737604561401","3","0.45657825","1.5388558","9.57721","roll back","1"
"119737624457391","3","0.49011505","1.5172964","9.589188","roll back","1"
"119737644360724","3","0.49969685","1.5149009","9.62991","roll back","1"
"119737664259370","3","0.49251044","1.5149009","9.608352","roll back","1"
"119737684162651","3","0.49011505","1.5316694","9.639493","roll back","1"
"119737704065776","3","0.48771954","1.524483","9.639493","roll back","1"
"119737723969110","3","0.5092788","1.519692","9.644284","roll back","1"
"119737743886349","3","0.4829285","1.5316694","9.60356","roll back","1"
"119737763789682","3","0.48532403","1.5364603","9.620329","roll back","1"
"119737783685776","3","0.49490583","1.5364603","9.584397","roll back","1"
"119737803589162","3","0.48532403","1.5412512","9.567629","roll back","1"
"119737823487182","3","0.4733466","1.5484377","9.579606","roll back","1"
"119737843390516","3","0.4757421","1.5388558","9.596374","roll back","1"
"119737863295776","3","0.5092788","1.5220875","9.605956","roll back","1"
"119737883199110","3","0.48771954","1.519692","9.596374","roll back","1"
"119737903092599","3","0.47095108","1.5172964","9.653866","roll back","1"
"119737922995932","3","0.4781376","1.5340649","9.6562605","roll back","1"
"119737942897651","3","0.4781376","1.5340649","9.620329","roll back","1"
"119737962801037","3","0.49490583","1.519692","9.608352","roll back","1"
"119737982713224","3","0.49251044","1.5125054","9.649075","roll back","1"
"119738002616557","3","0.4733466","1.5292739","9.620329","roll back","1"
"119738022513693","3","0.49251044","1.5172964","9.622725","roll back","1"
"119738042417026","3","0.4757421","1.5292739","9.641888","roll back","1"
"119738062335828","3","0.49730134","1.5316694","9.610746","roll back","1"
"119738082234943","3","0.50688326","1.5172964","9.622725","roll back","1"
"119738102133328","3","0.5092788","1.5172964","9.615538","roll back","1"
"119738122036714","3","0.4829285","1.5292739","9.632307","roll back","1"
"119738141956193","3","0.46616018","1.5364603","9.646679","roll back","1"
"119738161859578","3","0.5044879","1.5268784","9.589188","roll back","1"
"119738181743276","3","0.50688326","1.5364603","9.538883","roll back","1"
"119738201646610","3","0.4829285","1.5412512","9.584397","roll back","1"
"119738221560516","3","0.4781376","1.5316694","9.627516","roll back","1"
"119738241463849","3","0.4757421","1.5172964","9.653866","roll back","1"
"119738261363745","3","0.5164653","1.5149009","9.627516","roll back","1"
"119738281267130","3","0.49730134","1.5149009","9.634702","roll back","1"
"119738301172130","3","0.50209236","1.5149009","9.646679","roll back","1"
"119738321075516","3","0.48771954","1.5268784","9.658657","roll back","1"
"119738340963016","3","0.49251044","1.519692","9.60356","roll back","1"
"119738360866349","3","0.49251044","1.5364603","9.62991","roll back","1"
"119738380795985","3","0.4781376","1.5388558","9.601165","roll back","1"
"119738400699318","3","0.48532403","1.5484377","9.584397","roll back","1"
"119738420586870","3","0.49011505","1.5316694","9.591583","roll back","1"
"119738440490255","3","0.49969685","1.5292739","9.608352","roll back","1"
"119738460397339","3","0.5044879","1.5149009","9.610746","roll back","1"
"119738480300724","3","0.49011505","1.5412512","9.60356","roll back","1"
"119738500194110","3","0.4829285","1.5460422","9.584397","roll back","1"
"119738520097443","3","0.49011505","1.5340649","9.608352","roll back","1"
"119738540008328","3","0.49969685","1.519692","9.610746","roll back","1"
"119738559911714","3","0.5116743","1.5268784","9.613143","roll back","1"
"119738579792651","3","0.49011505","1.5220875","9.639493","roll back","1"
"119738599696037","3","0.50209236","1.5220875","9.60356","agitation","1"
"119738619598901","3","0.5092788","1.5316694","9.608352","agitation","1"
"119738639502235","3","0.49251044","1.5220875","9.622725","agitation","1"
"119738659420985","3","0.4733466","1.5029236","9.62991","agitation","1"
"119738679324318","3","0.49011505","1.5125054","9.615538","agitation","1"
"119738699230307","3","0.5092788","1.5412512","9.574815","agitation","1"
"119738719133641","3","0.480533","1.5268784","9.622725","agitation","1"
"119738738994787","3","0.47095108","1.5316694","9.663447","agitation","1"
"119738758898120","3","0.49490583","1.524483","9.641888","agitation","1"
"119738778805672","3","0.5044879","1.5053191","9.608352","agitation","1"
"119738798709057","3","0.49969685","1.5364603","9.593979","agitation","1"
"119738818640724","3","0.49011505","1.5340649","9.610746","agitation","1"
"119738838544110","3","0.4829285","1.5316694","9.637098","agitation","1"
"119738858441766","3","0.49251044","1.5220875","9.615538","agitation","1"
"119738878345151","3","0.49490583","1.5436467","9.579606","agitation","1"
"119738898217807","3","0.49251044","1.5340649","9.620329","agitation","1"
"119738918121193","3","0.48771954","1.5340649","9.613143","agitation","1"
"119738938045307","3","0.48771954","1.5077146","9.627516","agitation","1"
"119738957948693","3","0.48532403","1.5149009","9.634702","agitation","1"
"119738977854422","3","0.4781376","1.5029236","9.620329","agitation","1"
"119738997757807","3","0.5044879","1.4909462","9.649075","agitation","1"
"119739017647130","3","0.50688326","1.5005281","9.620329","agitation","1"
"119739037550464","3","0.4781376","1.5172964","9.591583","agitation","1"
"119739057444891","3","0.46136928","1.5436467","9.608352","agitation","1"
"119739077348276","3","0.40387774","1.5388558","9.579606","agitation","1"
"119739097259526","3","0.49730134","1.5460422","9.627516","agitation","1"
"119739117162703","3","0.58114314","1.4885507","9.72573","agitation","1"
"119739137089214","3","0.54281557","1.4382457","9.644284","agitation","1"
"119739156992443","3","0.5116743","1.5484377","9.582001","agitation","1"
"119739176870047","3","0.5092788","1.4717823","9.596374","agitation","1"
"119739196773224","3","0.53802454","1.4190818","9.69938","agitation","1"
"119739216678693","3","0.49490583","1.4550141","9.742498","agitation","1"
"119739236581870","3","0.42783248","1.4502231","9.6562605","agitation","1"
"119739256484839","3","0.44939184","1.565206","9.653866","agitation","1"
"119739276388016","3","0.46616018","1.6514432","9.529301","agitation","1"
"119739296284787","3","0.4757421","1.6418613","9.402341","agitation","1"
"119739316187964","3","0.4757421","1.629884","9.505346","agitation","1"
"119739336122287","3","0.4829285","1.5963472","9.6562605","agitation","1"
"119739356025464","3","0.4685557","1.5676016","9.653866","agitation","1"
"119739375924370","3","0.45657825","1.6274885","9.582001","agitation","1"
"119739395814110","3","0.50209236","1.7113302","9.526905","agitation","1"
"119739415717287","3","0.54042006","1.6610252","9.488578","agitation","1"
"119739435643589","3","0.54760647","1.524483","9.529301","agitation","1"
"119739455546766","3","0.44460094","1.5364603","9.687403","agitation","1"
"119739475425828","3","0.3895049","1.5532287","9.768848","agitation","1"
"119739495329005","3","0.44220543","1.5460422","9.641888","agitation","1"
"119739515215568","3","0.480533","1.519692","9.560442","agitation","1"
"119739535118745","3","0.43501902","1.4861552","9.59877","agitation","1"
"119739555030047","3","0.40148222","1.4741778","9.675425","agitation","1"
"119739574933224","3","0.3463863","1.4741778","9.730521","agitation","1"
"119739594858224","3","0.32961786","1.4550141","9.675425","agitation","1"
"119739614761453","3","0.40148222","1.4885507","9.677821","agitation","1"
"119739634648276","3","0.4206462","1.5532287","9.644284","agitation","1"
"119739654551453","3","0.49490583","1.4071045","9.579606","agitation","1"
"119739674446557","3","0.4829285","1.5676016","9.596374","agitation","1"
"119739694349735","3","0.4326235","1.6155111","9.57242","agitation","1"
"119739714248641","3","0.53083813","1.5412512","9.553256","agitation","1"
"119739734151818","3","0.6218662","1.5292739","9.634702","agitation","1"
"119739754055620","3","0.59072506","1.5676016","9.502951","agitation","1"
"119739773958797","3","0.5236516","1.5676016","9.402341","agitation","1"
"119739793884370","3","0.5044879","1.5628105","9.534092","agitation","1"
"119739813787443","3","0.45418274","1.4023135","9.617934","agitation","1"
"119739833695047","3","0.4326235","1.3376356","9.658657","agitation","1"
"119739853598224","3","0.5044879","1.4981327","9.764058","agitation","1"
"119739873470151","3","0.5188608","1.5172964","9.514928","agitation","1"
"119739893373328","3","0.5284426","1.404709","9.3520355","agitation","1"
"119739913262651","3","0.40627325","1.4765733","9.641888","agitation","1"
"119739933165880","3","0.32003605","1.629884","9.965278","agitation","1"
"119739953099630","3","0.45657825","1.4142909","9.910182","agitation","1"
"119739973002807","3","0.5571884","1.4693869","9.584397","agitation","1"
"119739992884162","3","0.54760647","1.5843698","9.428691","agitation","1"
"119740012787339","3","0.4733466","1.5220875","9.567629","agitation","1"
"119740032708745","3","0.430228","1.4645959","9.77364","agitation","1"
"119740052611922","3","0.43980992","1.4741778","9.615538","agitation","1"
"119740072500880","3","0.41825068","1.5412512","9.39755","agitation","1"
"119740092404110","3","0.3895049","1.4669914","9.632307","agitation","1"
"119740112309266","3","0.36794555","1.4478276","9.816758","agitation","1"
"119740132212443","3","0.3966912","1.4981327","9.675425","agitation","1"
"119740152108537","3","0.50688326","1.4406412","9.589188","agitation","1"
"119740172011714","3","0.5044879","1.4789689","9.663447","agitation","1"
"119740191881714","3","0.54281557","1.5268784","9.62991","agitation","1"
"119740211784891","3","0.5212561","1.5388558","9.459832","agitation","1"
"119740231716245","3","0.40148222","1.569997","9.548465","agitation","1"
"119740251619422","3","0.3895049","1.5292739","9.855085","agitation","1"
"119740271534266","3","0.47095108","1.6083248","9.685007","agitation","1"
"119740291437443","3","0.5260471","1.7065394","9.364013","agitation","1"
"119740311312495","3","0.4685557","1.6897709","9.433482","agitation","1"
"119740331215672","3","0.3895049","1.6586297","9.632307","agitation","1"
"119740351146766","3","0.4326235","1.5628105","9.723335","agitation","1"
"119740371049943","3","0.5044879","1.4693869","9.632307","agitation","1"
"119740390921505","3","0.6218662","1.4382457","9.474205","agitation","1"
"119740410824422","3","0.5715612","1.4190818","9.452646","agitation","1"
"119740430730360","3","0.44220543","1.4095","9.658657","agitation","1"
"119740450633276","3","0.36315465","1.4622004","9.7880125","agitation","1"
"119740470537547","3","0.42304146","1.5580196","9.797595","agitation","1"
"119740490440516","3","0.53802454","1.6011382","9.601165","agitation","1"
"119740510340412","3","0.62665725","1.4789689","9.404736","agitation","1"
"119740530243328","3","0.54042006","1.4166863","9.5436735","agitation","1"
"119740550144943","3","0.44460094","1.4669914","9.807176","agitation","1"
"119740570047860","3","0.6050979","1.629884","9.65147","agitation","1"
"119740589957026","3","0.6122844","1.5723925","9.428691","agitation","1"
"119740609859943","3","0.44939184","1.5101101","9.57242","agitation","1"
"119740629754162","3","0.38231838","1.4933417","9.754476","agitation","1"
"119740649657078","3","0.48771954","1.4502231","9.6562605","agitation","1"
"119740669590307","3","0.46616018","1.4406412","9.548465","agitation","1"
"119740689493224","3","0.42543697","1.5915563","9.689797","agitation","1"
"119740709390932","3","0.4374144","1.6011382","9.661052","agitation","1"
"119740729293849","3","0.5092788","1.5676016","9.57721","agitation","1"
"119740749172599","3","0.480533","1.4622004","9.649075","agitation","1"
"119740769075568","3","0.4781376","1.4334548","9.713753","agitation","1"
"119740788974682","3","0.6027025","1.4550141","9.641888","agitation","1"
"119740808877599","3","0.63144827","1.5101101","9.438272","agitation","1"
"119740828776818","3","0.5140698","1.5628105","9.481391","agitation","1"
"119740848679735","3","0.4206462","1.5819744","9.574815","agitation","1"
"119740868586245","3","0.37273645","1.5723925","9.641888","agitation","1"
"119740888489214","3","0.3966912","1.625093","9.716147","agitation","1"
"119740908387339","3","0.5164653","1.5843698","9.610746","agitation","1"
"119740928290255","3","0.53802454","1.5340649","9.538883","agitation","1"
"119740948194995","3","0.59072506","1.524483","9.591583","agitation","1"
"119740968097912","3","0.6027025","1.4478276","9.689797","agitation","1"
"119740987991297","3","0.50688326","1.4789689","9.783222","agitation","1"
"119741007894214","3","0.5188608","1.5556241","9.821548","agitation","1"
"119741027804891","3","0.54281557","1.5292739","9.74729","agitation","1"
"119741047707860","3","0.4733466","1.5556241","9.536487","agitation","1"
"119741067639422","3","0.48532403","1.579579","9.421504","agitation","1"
"119741087542287","3","0.58353865","1.5867653","9.474205","agitation","1"
"119741107448745","3","0.66258943","1.5436467","9.4909725","agitation","1"
"119741127351662","3","0.645821","1.5556241","9.435877","agitation","1"
"119741147220880","3","0.59551597","1.5340649","9.407132","agitation","1"
"119741167123849","3","0.49251044","1.354404","9.610746","agitation","1"
"119741187049682","3","0.3439908","1.4885507","9.898205","agitation","1"
"119741206952599","3","0.2984767","1.6370704","9.955696","agitation","1"
"119741226858849","3","0.44939184","1.6059293","9.694589","agitation","1"
"119741246761766","3","0.5619793","1.5340649","9.565233","agitation","1"
"119741266640151","3","0.53083813","1.4669914","9.5436735","agitation","1"
"119741286543068","3","0.46136928","1.4741778","9.653866","agitation","1"
"119741306458849","3","0.54042006","1.5101101","9.780826","agitation","1"
"119741326361766","3","0.57874763","1.5364603","9.704171","agitation","1"
"119741346272547","3","0.54521096","1.5556241","9.488578","agitation","1"
"119741366175464","3","0.4733466","1.6011382","9.531696","agitation","1"
"119741386079682","3","0.40627325","1.5963472","9.706566","agitation","1"
"119741405982651","3","0.5547929","1.5987427","9.665843","agitation","1"
"119741425880932","3","0.58593416","1.6706071","9.416713","agitation","1"
"119741445783901","3","0.5643748","1.5556241","9.359221","agitation","1"
"119741465686714","3","0.5739567","1.569997","9.617934","agitation","1"
"119741485589630","3","0.5595839","1.6873754","9.649075","agitation","1"
"119741505495047","3","0.54760647","1.6514432","9.519719","agitation","1"
"119741525398016","3","0.5164653","1.5029236","9.586792","agitation","1"
"119741545308380","3","0.5547929","1.4813644","9.69938","agitation","1"
"119741565211349","3","0.5667703","1.4837599","9.778431","agitation","1"
"119741585097755","3","0.54042006","1.4861552","9.785617","agitation","1"
"119741605000724","3","0.5092788","1.5172964","9.685007","agitation","1"
"119741624906557","3","0.5523974","1.5292739","9.586792","agitation","1"
"119741644809526","3","0.48532403","1.4214773","9.668239","agitation","1"
"119741664679735","3","0.45897377","1.3304492","9.759267","agitation","1"
"119741684582651","3","0.5763521","1.3687768","9.459832","agitation","1"
"119741704502443","3","0.54281557","1.4933417","9.39755","agitation","1"
"119741724405360","3","0.3966912","1.5987427","9.637098","agitation","1"
"119741744307755","3","0.39429593","1.569997","9.756871","agitation","1"
"119741764210724","3","0.45418274","1.5101101","9.582001","agitation","1"
"119741784128953","3","0.600307","1.5292739","9.474205","agitation","1"
"119741804031922","3","0.6218662","1.5460422","9.562838","agitation","1"
"119741823947339","3","0.54042006","1.4406412","9.728126","agitation","1"
"119741843850203","3","0.45897377","1.519692","9.811967","agitation","1"
"119741863735620","3","0.45897377","1.804754","9.653866","agitation","1"
"119741883638537","3","0.5116743","1.9125504","9.332871","agitation","1"
"119741903537964","3","0.6027025","1.7472625","9.270589","agitation","1"
"119741923440932","3","0.49011505","1.7185167","9.574815","agitation","1"
"119741943334526","3","0.4374144","1.7257031","9.637098","agitation","1"
"119741963237495","3","0.46616018","1.574788","9.428691","agitation","1"
"119741983138849","3","0.44460094","1.3807542","9.59877","agitation","1"
"119742003041766","3","0.44939184","1.4142909","9.895809","agitation","1"
"119742022944787","3","0.5116743","1.4238728","9.857482","agitation","1"
"119742042847755","3","0.5212561","1.4669914","9.524509","agitation","1"
"119742062749162","3","0.5595839","1.4669914","9.560442","agitation","1"
"119742082652130","3","0.5260471","1.4717823","9.6562605","agitation","1"
"119742102585464","3","0.45657825","1.5436467","9.658657","agitation","1"
"119742122488432","3","0.4374144","1.5412512","9.620329","agitation","1"
"119742142400880","3","0.44699633","1.5676016","9.498159","agitation","1"
"119742162303797","3","0.49730134","1.6514432","9.474205","agitation","1"
"119742182190880","3","0.5164653","1.6131155","9.555651","agitation","1"
"119742202093797","3","0.49011505","1.5005281","9.689797","agitation","1"
"119742222009578","3","0.4829285","1.524483","9.617934","agitation","1"
"119742241912547","3","0.5188608","1.5388558","9.644284","agitation","1"
"119742261829578","3","0.53802454","1.5484377","9.62512","agitation","1"
"119742281732547","3","0.54521096","1.579579","9.670634","agitation","1"
"119742301649787","3","0.53802454","1.519692","9.718544","agitation","1"
"119742321552703","3","0.54281557","1.5316694","9.67303","agitation","1"
"119742341455151","3","0.5140698","1.5723925","9.507742","agitation","1"
"119742361358068","3","0.5188608","1.5436467","9.514928","agitation","1"
"119742381266818","3","0.46136928","1.5556241","9.62991","agitation","1"
"119742401169787","3","0.46136928","1.569997","9.531696","agitation","1"
"119742421066714","3","0.5092788","1.4717823","9.4646225","agitation","1"
"119742440969682","3","0.49730134","1.3975226","9.507742","agitation","1"
"119742460873589","3","0.41345966","1.6011382","9.728126","agitation","1"
"119742480776714","3","0.48771954","1.4526186","9.732917","agitation","1"
"119742500681662","3","0.5619793","1.4023135","9.634702","agitation","1"
"119742520584787","3","0.54760647","1.5220875","9.687403","agitation","1"
"119742540487599","3","0.5523974","1.5388558","9.713753","agitation","1"
"119742560390724","3","0.53562903","1.5436467","9.682611","agitation","1"
"119742580324578","3","0.46136928","1.5676016","9.565233","agitation","1"
"119742600227651","3","0.40866876","1.6035337","9.634702","sit up","1"
"119742620110307","3","0.43980992","1.5987427","9.622725","sit up","1"
"119742640013432","3","0.49730134","1.579579","9.4646225","sit up","1"
"119742659921662","3","0.49490583","1.565206","9.440668","sit up","1"
"119742679824735","3","0.49490583","1.5556241","9.596374","sit up","1"
"119742699736245","3","0.47095108","1.5436467","9.692194","sit up","1"
"119742719639370","3","0.480533","1.5053191","9.675425","sit up","1"
"119742739548745","3","0.5188608","1.5101101","9.62991","sit up","1"
"119742759451870","3","0.53083813","1.4957372","9.644284","sit up","1"
"119742779347339","3","0.5164653","1.5172964","9.632307","sit up","1"
"119742799250464","3","0.5044879","1.5220875","9.622725","sit up","1"
"119742819198224","3","0.50209236","1.5077146","9.613143","sit up","1"
"119742839101297","3","0.49490583","1.5388558","9.617934","sit up","1"
"119742859001349","3","0.5092788","1.5364603","9.615538","sit up","1"
"119742878904474","3","0.5140698","1.5220875","9.584397","sit up","1"
"119742898819526","3","0.49730134","1.5292739","9.591583","sit up","1"
"119742918722651","3","0.49969685","1.5412512","9.586792","sit up","1"
"119742938631037","3","0.4781376","1.5364603","9.62991","sit up","1"
"119742958534162","3","0.49011505","1.5292739","9.601165","sit up","1"
"119742978448328","3","0.5236516","1.5364603","9.634702","sit up","1"
"119742998351401","3","0.50688326","1.5292739","9.653866","sit up","1"
"119743018224474","3","0.48771954","1.5460422","9.632307","sit up","1"
"119743038127599","3","0.49969685","1.5460422","9.567629","sit up","1"
"119743058026974","3","0.4757421","1.524483","9.613143","sit up","1"
"119743077930047","3","0.4685557","1.5364603","9.661052","sit up","1"
"119743097851037","3","0.5212561","1.5340649","9.596374","sit up","1"
"119743117754162","3","0.5116743","1.5005281","9.531696","sit up","1"
"119743137666349","3","0.48532403","1.4717823","9.670634","sit up","1"
"119743157569474","3","0.4781376","1.5268784","9.723335","sit up","1"
"119743177486974","3","0.5044879","1.5628105","9.548465","sit up","1"
"119743197390047","3","0.50209236","1.574788","9.495764","sit up","1"
"119743217309110","3","0.5044879","1.5316694","9.60356","sit up","1"
"119743237212182","3","0.49011505","1.5029236","9.622725","sit up","1"
"119743257082599","3","0.46616018","1.5316694","9.701775","sit up","1"
"119743276985672","3","0.4757421","1.5628105","9.687403","sit up","1"
"119743296895672","3","0.49969685","1.560415","9.596374","sit up","1"
"119743316798745","3","0.54760647","1.4861552","9.586792","sit up","1"
"119743336699370","3","0.53802454","1.4502231","9.706566","sit up","1"
"119743356602547","3","0.4206462","1.4406412","9.701775","sit up","1"
"119743376517755","3","0.41345966","1.5077146","9.65147","sit up","1"
"119743396420880","3","0.5236516","1.4334548","9.665843","sit up","1"
"119743416329943","3","0.5260471","1.4622004","9.675425","sit up","1"
"119743436233068","3","0.43501902","1.5388558","9.541278","sit up","1"
"119743456143068","3","0.45178723","1.6586297","9.500555","sit up","1"
"119743476075724","3","0.54042006","1.7233076","9.548465","sit up","1"
"119743495978797","3","0.5571884","1.740076","9.567629","sit up","1"
"119743515892964","3","0.47095108","1.7712172","9.457437","sit up","1"
"119743535796037","3","0.4733466","1.6993529","9.555651","sit up","1"
"119743555707339","3","0.49251044","1.5843698","9.649075","sit up","1"
"119743575610464","3","0.40148222","1.5867653","9.644284","sit up","1"
"119743595491401","3","0.4637648","1.4957372","9.72573","sit up","1"
"119743615394526","3","0.5691657","1.5364603","9.553256","sit up","1"
"119743635322651","3","0.49969685","1.5915563","9.462228","sit up","1"
"119743655225724","3","0.41825068","1.5292739","9.550859","sit up","1"
"119743675116714","3","0.43501902","1.4286637","9.680216","sit up","1"
"119743695019787","3","0.430228","1.4334548","9.811967","sit up","1"
"119743714946193","3","0.44460094","1.4358503","9.744894","sit up","1"
"119743734849266","3","0.5284426","1.3639858","9.593979","sit up","1"
"119743754761193","3","0.4757421","1.4622004","9.663447","sit up","1"
"119743774664318","3","0.48532403","1.5939518","9.696984","sit up","1"
"119743794565776","3","0.5619793","1.5125054","9.649075","sit up","1"
"119743814468901","3","0.5691657","1.5005281","9.558047","sit up","1"
"119743834364474","3","0.71049905","1.6706071","9.570024","sit up","1"
"119743854267547","3","0.8278774","1.7161212","9.531696","sit up","1"
"119743874183432","3","0.645821","1.5556241","9.184352","sit up","1"
"119743894086557","3","0.4637648","1.4717823","9.217889","sit up","1"
"119743914009943","3","0.22661233","1.5819744","9.560442","sit up","1"
"119743933913068","3","0.082883656","1.7831945","9.478996","sit up","1"
"119743953834839","3","0.14037514","1.8718274","9.5436735","sit up","1"
"119743973737912","3","0.41585517","1.9125504","9.802386","sit up","1"
"119743993605203","3","0.61467993","1.8263133","9.627516","sit up","1"
"119744013508276","3","0.7799679","1.7017484","9.146024","sit up","1"
"119744033442339","3","0.7799679","1.5268784","9.1939335","sit up","1"
"119744053345464","3","0.75601315","1.354404","9.65147","sit up","1"
"119744073222443","3","0.8614142","1.5268784","9.732917","sit up","1"
"119744093125568","3","0.75840855","1.6059293","9.706566","sit up","1"
"119744113069005","3","0.5643748","1.625093","9.879041","sit up","1"
"119744132972130","3","0.50688326","1.6562343","9.989233","sit up","1"
"119744152874266","3","0.4326235","1.4118955","10.085052","sit up","1"
"119744172777391","3","0.61707544","1.0525737","10.116193","sit up","1"
"119744192687339","3","0.88536894","1.0286188","9.838318","sit up","1"
"119744212590412","3","1.0003519","1.2154663","9.586792","sit up","1"
"119744232500985","3","0.84943676","1.3759633","9.723335","sit up","1"
"119744252404057","3","0.4206462","1.6873754","9.967674","sit up","1"
"119744272298224","3","0.16912085","1.8430816","9.864668","sit up","1"
"119744292201349","3","0.22661233","1.7376804","9.617934","sit up","1"
"119744312088693","3","0.20505303","1.8143358","9.443064","sit up","1"
"119744331991818","3","0.051742375","2.2311492","9.328081","sit up","1"
"119744351908641","3","0.030183077","2.2191718","9.493369","sit up","1"
"119744371811714","3","0.08527905","1.7927765","9.749685","sit up","1"
"119744391723432","3","0.11881584","2.176053","9.740103","sit up","1"
"119744411626557","3","0.027787626","2.9066741","9.440668","sit up","1"
"119744431503276","3","0.12600225","3.0480072","8.942409","sit up","1"
"119744451406401","3","0.27931285","2.9497929","8.676511","sit up","1"
"119744471307964","3","0.36075914","2.9689565","8.717234","sit up","1"
"119744491211037","3","0.32482696","2.6647308","9.25382","sit up","1"
"119744511153172","3","0.19068015","2.2024033","9.994024","sit up","1"
"119744531056245","3","0.10204744","2.029929","9.962883","sit up","1"
"119744550896818","3","0.17391181","1.914946","9.409527","sit up","1"
"119744570800099","3","0.43980992","1.8526635","9.241844","sit up","1"
"119744590740985","3","0.5164653","1.7304941","9.371199","sit up","1"
"119744610644214","3","0.20505303","1.8838047","9.459832","sit up","1"
"119744630522391","3","-0.33392966","2.0562792","9.60356","sit up","1"
"119744650425672","3","-0.3602799","1.7185167","9.893414","sit up","1"
"119744670350307","3","-0.070427","1.3783587","10.233572","sit up","1"
"119744690253537","3","0.19547111","1.5460422","9.881435","sit up","1"
"119744710162495","3","0.17391181","1.7424715","9.335267","sit up","1"
"119744730065724","3","0.058928847","1.61072","9.541278","sit up","1"
"119744749969787","3","0.47095108","1.5316694","9.802386","sit up","1"
"119744769873016","3","0.61467993","1.4669914","9.37599","sit up","1"
"119744789783276","3","0.33440888","1.6418613","8.889708","sit up","1"
"119744809686557","3","0.104442954","1.7352849","9.438272","sit up","1"
"119744829560412","3","0.09486103","1.7496579","9.941323","sit up","1"
"119744849463641","3","0.09965193","1.7065394","9.811967","sit up","1"
"119744869372130","3","0.15714347","1.6586297","9.694589","sit up","1"
"119744889275360","3","0.22182137","1.8694319","9.622725","sit up","1"
"119744909199422","3","0.260149","1.8814092","9.390363","sit up","1"
"119744929102703","3","0.260149","1.955669","9.445458","sit up","1"
"119744948995203","3","0.24817163","2.0490928","9.474205","sit up","1"
"119744968898432","3","0.209844","1.7161212","9.467019","sit up","1"
"119744988800880","3","0.106838405","1.3831497","9.677821","sit up","1"
"119745008704110","3","0.015810192","1.2513983","9.931741","sit up","1"
"119745028615985","3","0.06611526","1.5364603","10.039537","sit up","1"
"119745048519214","3","0.1715163","2.0730476","9.840713","sit up","1"
"119745068451349","3","0.32003605","2.3365502","9.438272","sit up","1"
"119745088354578","3","0.40866876","1.9820193","9.033437","sit up","1"
"119745108228328","3","0.43980992","1.8574544","8.652555","sit up","1"
"119745128131557","3","0.27931285","2.0443017","8.971154","sit up","1"
"119745148029682","3","-0.048867702","1.8191267","9.821548","sit up","1"
"119745167932912","3","-0.19259644","1.3328447","10.370113","sit up","1"
"119745187839630","3","-0.09438181","1.1939069","10.504261","sit up","1"
"119745207742912","3","0.051742375","1.3472176","10.070679","sit up","1"
"119745227675203","3","0.14037514","1.5508332","9.443064","sit up","1"
"119745247578485","3","0.20265758","1.7161212","9.191539","sit up","1"
"119745267456453","3","0.11642033","1.6490479","9.4646225","sit up","1"
"119745287359735","3","0.0613243","1.5172964","9.641888","sit up","1"
"119745307265360","3","0.0613243","1.5556241","9.730521","sit up","1"
"119745327168589","3","0.09725648","1.6418613","9.850295","sit up","1"
"119745347104005","3","0.10204744","1.680189","9.754476","sit up","1"
"119745367007235","3","0.15714347","1.7113302","9.469414","sit up","1"
"119745386900880","3","0.16912085","1.6274885","9.404736","sit up","1"
"119745406804110","3","0.14756149","1.6442568","9.526905","sit up","1"
"119745426692235","3","0.11881584","1.7496579","9.668239","sit up","1"
"119745446595464","3","0.12360674","1.7185167","9.7353115","sit up","1"
"119745466491453","3","0.11642033","1.7017484","9.658657","sit up","1"
"119745486394682","3","0.12360674","1.6466523","9.567629","sit up","1"
"119745506307547","3","0.17630726","1.6753981","9.486182","sit up","1"
"119745526210776","3","0.20026207","1.7520534","9.486182","sit up","1"
"119745546114943","3","0.12600225","1.680189","9.567629","sit up","1"
"119745566018172","3","0.080488145","1.5172964","9.6562605","sit up","1"
"119745585941245","3","0.022996664","1.4957372","9.7353115","sit up","1"
"119745605844735","3","0.109233916","1.4262683","9.895809","sit up","1"
"119745625731610","3","0.23140323","1.519692","9.711357","sit up","1"
"119745645635151","3","0.24577612","1.6203021","9.368804","sit up","1"
"119745665549162","3","0.2625445","1.5676016","9.39755","sit up","1"
"119745685452755","3","0.10204744","1.6466523","9.433482","sit up","1"
"119745705359630","3","0.09965193","1.6610252","9.7880125","sit up","1"
"119745725263120","3","0.17391181","1.625093","9.639493","sit up","1"
"119745745155724","3","0.13797963","1.6394658","9.634702","sit up","1"
"119745765059318","3","0.11881584","1.6586297","9.730521","sit up","1"
"119745785012235","3","0.12360674","1.6586297","9.505346","sit up","1"
"119745804915776","3","0.1715163","1.6011382","9.531696","sit up","1"
"119745824790880","3","0.11642033","1.5867653","9.668239","sit up","1"
"119745844694422","3","0.06371975","1.4957372","9.744894","sit up","1"
"119745864589995","3","0.08767456","1.4813644","9.720939","sit up","1"
"119745884493537","3","0.12360674","1.5723925","9.749685","sit up","1"
"119745904417235","3","0.14277059","1.6346749","9.661052","sit up","1"
"119745924320724","3","0.15714347","1.6682116","9.462228","sit up","1"
"119745944240672","3","0.1451661","1.6083248","9.512533","sit up","1"
"119745964144214","3","0.104442954","1.574788","9.696984","sit up","1"
"119745984018745","3","0.0014373064","1.6658161","9.79999","sit up","1"
"119746003922287","3","0.0014373064","1.6921664","9.840713","sit up","1"
"119746023803537","3","0.14756149","1.5963472","9.677821","sit up","1"
"119746043707130","3","0.17870277","1.6634207","9.344849","sit up","1"
"119746063667651","3","0.16432989","1.6945618","9.366407","sit up","1"
"119746083571193","3","0.13079321","1.6538388","9.62991","sit up","1"
"119746103445985","3","0.12360674","1.6370704","9.711357","sit up","1"
"119746123349526","3","0.13797963","1.6179066","9.737708","sit up","1"
"119746143289214","3","0.13079321","1.6083248","9.713753","sit up","1"
"119746163192755","3","0.15474796","1.629884","9.486182","sit up","1"
"119746183069005","3","0.14277059","1.6059293","9.481391","sit up","1"
"119746202972547","3","0.13318872","1.5843698","9.610746","sit up","1"
"119746222874682","3","0.10204744","1.6011382","9.704171","sit up","1"
"119746242778224","3","0.11402482","1.6322795","9.74729","sit up","1"
"119746262701349","3","0.12121129","1.6490479","9.62512","sit up","1"
"119746282604891","3","0.1451661","1.6682116","9.536487","sit up","1"
"119746302511766","3","0.13558412","1.6634207","9.558047","sit up","1"
"119746322415360","3","0.11162937","1.6370704","9.627516","sit up","1"
"119746342316557","3","0.106838405","1.6131155","9.675425","sit up","1"
"119746362220099","3","0.11881584","1.6203021","9.646679","sit up","1"
"119746382139891","3","0.15714347","1.6346749","9.622725","sit up","1"
"119746402043380","3","0.14277059","1.6418613","9.615538","sit up","1"
"119746421947339","3","0.149957","1.6394658","9.605956","sit up","1"
"119746441850880","3","0.12360674","1.6226976","9.661052","sit up","1"
"119746461784162","3","0.11402482","1.6011382","9.692194","sit up","1"
"119746481687703","3","0.11162937","1.6011382","9.62991","sit up","1"
"119746501557495","3","0.082883656","1.6203021","9.644284","sit up","1"
"119746521461037","3","0.09007007","1.6370704","9.596374","sit up","1"
"119746541369162","3","0.11402482","1.6322795","9.605956","sit up","1"
"119746561272703","3","0.12600225","1.6370704","9.632307","sit up","1"
"119746581185828","3","0.13079321","1.6346749","9.620329","sit up","1"
"119746601089370","3","0.13558412","1.6203021","9.613143","stand up","1"
"119746620988953","3","0.14037514","1.6179066","9.567629","stand up","1"
"119746640892703","3","0.13558412","1.6179066","9.593979","stand up","1"
"119746660818745","3","0.12121129","1.629884","9.617934","stand up","1"
"119746680722547","3","0.12121129","1.6346749","9.665843","stand up","1"
"119746700626974","3","0.12360674","1.625093","9.658657","stand up","1"
"119746720530724","3","0.13318872","1.6035337","9.613143","stand up","1"
"119746740437912","3","0.11162937","1.6059293","9.579606","stand up","1"
"119746760341714","3","0.11162937","1.6442568","9.615538","stand up","1"
"119746780258432","3","0.11162937","1.6610252","9.639493","stand up","1"
"119746800154057","3","0.10204744","1.6370704","9.644284","stand up","1"
"119746820057860","3","0.11642033","1.6179066","9.613143","stand up","1"
"119746839952599","3","0.109233916","1.6226976","9.62512","stand up","1"
"119746859856349","3","0.09246552","1.6131155","9.620329","stand up","1"
"119746879775099","3","0.06851077","1.5987427","9.637098","stand up","1"
"119746899678901","3","0.0349741","1.61072","9.665843","stand up","1"
"119746919577287","3","0.056533396","1.5843698","9.7353115","stand up","1"
"119746939481089","3","0.09965193","1.6059293","9.665843","stand up","1"
"119746959368120","3","0.12121129","1.680189","9.565233","stand up","1"
"119746979271922","3","0.13318872","1.6849799","9.593979","stand up","1"
"119746999177182","3","0.10204744","1.6730026","9.649075","stand up","1"
"119747019080985","3","0.13318872","1.6777936","9.605956","stand up","1"
"119747038987755","3","0.15474796","1.6682116","9.644284","stand up","1"
"119747058891505","3","0.1283977","1.6682116","9.639493","stand up","1"
"119747078807599","3","0.1715163","1.579579","9.534092","stand up","1"
"119747098711401","3","0.1715163","1.5101101","9.582001","stand up","1"
"119747118615360","3","0.18349367","1.6035337","9.634702","stand up","1"
"119747138519162","3","0.23379874","1.7472625","9.60356","stand up","1"
"119747158423849","3","0.21463495","1.6538388","9.505346","stand up","1"
"119747178327651","3","0.21223944","1.5867653","9.502951","stand up","1"
"119747198234266","3","0.23140323","1.6203021","9.608352","stand up","1"
"119747218138068","3","0.16912085","1.6179066","9.62512","stand up","1"
"119747238028068","3","0.11881584","1.5556241","9.617934","stand up","1"
"119747257931870","3","0.17630726","1.6083248","9.601165","stand up","1"
"119747277827078","3","0.109233916","1.795172","9.531696","stand up","1"
"119747297730828","3","0.149957","1.524483","9.62512","stand up","1"
"119747317650776","3","0.260149","1.3759633","9.548465","stand up","1"
"119747337554578","3","0.2529626","1.2298391","9.481391","stand up","1"
"119747357451557","3","0.27452183","1.3280537","9.864668","stand up","1"
"119747377355360","3","-0.04407674","1.6370704","9.9269495","stand up","1"
"119747397272495","3","-0.048867702","1.6203021","9.529301","stand up","1"
"119747417176297","3","0.33919978","1.3567994","9.22268","stand up","1"
"119747437088224","3","0.3847139","0.9399862","9.347245","stand up","1"
"119747456991974","3","-0.10396367","1.850268","9.94851","stand up","1"
"119747476895151","3","-0.39860755","2.6024482","10.200035","stand up","1"
"119747496799005","3","-0.053658664","2.286245","9.823945","stand up","1"
"119747516705255","3","0.2170304","1.5628105","9.078951","stand up","1"
"119747536609110","3","0.14277059","1.2442119","8.906477","stand up","1"
"119747556510047","3","-0.27643815","1.7903811","9.596374","stand up","1"
"119747576413797","3","-0.44172618","2.614426","10.212012","stand up","1"
"119747596338120","3","-0.08959085","2.4084146","10.161707","stand up","1"
"119747616241922","3","0.013414741","1.9317142","9.586792","stand up","1"
"119747636149266","3","-0.070427","1.8334996","9.10051","stand up","1"
"119747656053068","3","-0.070427","1.799963","9.538883","stand up","1"
"119747675960985","3","0.15474796","1.4382457","9.766453","stand up","1"
"119747695864787","3","0.07330167","1.354404","9.37599","stand up","1"
"119747715768068","3","-0.2716472","1.6873754","9.687403","stand up","1"
"119747735671870","3","-0.17343253","2.1185617","10.106611","stand up","1"
"119747755579526","3","-0.080008924","2.355714","9.919764","stand up","1"
"119747775483328","3","-0.07282251","2.116166","9.289753","stand up","1"
"119747795377964","3","0.020601213","2.005974","9.138838","stand up","1"
"119747815281714","3","-0.01533097","1.9748329","9.428691","stand up","1"
"119747835174787","3","0.020601213","1.629884","9.764058","stand up","1"
"119747855078537","3","0.36794555","1.6466523","9.75208","stand up","1"
"119747875001297","3","0.26973093","2.0083697","9.445458","stand up","1"
"119747894905099","3","0.07569718","2.0586746","9.380781","stand up","1"
"119747914806245","3","-0.13031399","2.250313","9.582001","stand up","1"
"119747934710047","3","0.030183077","2.5329795","9.500555","stand up","1"
"119747954610568","3","0.2553581","2.3173864","9.399945","stand up","1"
"119747974514370","3","0.20744848","1.9197369","9.30652","stand up","1"
"119747994419526","3","0.0613243","1.7065394","9.366407","stand up","1"
"119748014323328","3","-0.111150086","1.459805","9.641888","stand up","1"
"119748034226766","3","-0.080008924","1.129229","9.934136","stand up","1"
"119748054130568","3","0.13558412","0.9783139","10.089843","stand up","1"
"119748074023016","3","0.046951473","0.79865295","10.020374","stand up","1"
"119748093926766","3","-0.08959085","0.84177154","9.67303","stand up","1"
"119748113817807","3","-0.080008924","1.0669465","9.541278","stand up","1"
"119748133721557","3","0.020601213","0.9807093","9.653866","stand up","1"
"119748153652703","3","0.19307566","0.6692971","9.802386","stand up","1"
"119748173556505","3","0.15953892","1.0597601","9.749685","stand up","1"
"119748193460880","3","0.03736949","1.3567994","9.426295","stand up","1"
"119748213364682","3","0.06371975","1.524483","9.680216","stand up","1"
"119748233272807","3","-0.017726481","1.4957372","9.811967","stand up","1"
"119748253176610","3","-0.01293546","1.3591949","9.711357","stand up","1"
"119748273085516","3","0.058928847","1.3472176","9.615538","stand up","1"
"119748292989318","3","0.149957","1.3136808","9.560442","stand up","1"
"119748312895360","3","0.11881584","1.390336","9.67303","stand up","1"
"119748332799162","3","0.018205702","1.4454321","9.596374","stand up","1"
"119748352689630","3","-9.5808506E-4","1.3999181","9.653866","stand up","1"
"119748372593432","3","0.025392115","1.4214773","9.771244","stand up","1"
"119748392511610","3","0.07330167","1.3975226","9.716147","stand up","1"
"119748412415360","3","0.06371975","1.3783587","9.591583","stand up","1"
"119748432327703","3","0.07569718","1.3663813","9.613143","stand up","1"
"119748452231505","3","0.07569718","1.4406412","9.622725","stand up","1"
"119748472170360","3","0.030183077","1.4118955","9.632307","stand up","1"
"119748492074474","3","0.018205702","1.3831497","9.713753","stand up","1"
"119748511941089","3","0.04216051","1.3831497","9.7089615","stand up","1"
"119748531845151","3","0.058928847","1.4142909","9.65147","stand up","1"
"119748551769578","3","0.09246552","1.4238728","9.634702","stand up","1"
"119748571673693","3","0.054137886","1.4166863","9.634702","stand up","1"
"119748591579474","3","0.0349741","1.3567994","9.620329","stand up","1"
"119748611483589","3","0.030183077","1.3879406","9.732917","stand up","1"
"119748631376245","3","0.046951473","1.4118955","9.67303","stand up","1"
"119748651280360","3","0.06371975","1.3999181","9.641888","stand up","1"
"119748671153276","3","0.04216051","1.4238728","9.661052","stand up","1"
"119748691057391","3","0.049346924","1.395127","9.685007","stand up","1"
"119748710993745","3","0.03736949","1.3855451","9.653866","stand up","1"
"119748730897860","3","0.049346924","1.3783587","9.701775","stand up","1"
"119748750821818","3","0.04216051","1.4262683","9.670634","stand up","1"
"119748770725932","3","0.07330167","1.3999181","9.62991","stand up","1"
"119748790606245","3","0.056533396","1.390336","9.682611","stand up","1"
"119748810510360","3","0.051742375","1.395127","9.694589","stand up","1"
"119748830417130","3","0.056533396","1.3927315","9.641888","stand up","1"
"119748850321245","3","0.049346924","1.3711723","9.646679","stand up","1"
"119748870227339","3","0.06851077","1.3975226","9.649075","stand up","1"
"119748890131453","3","0.056533396","1.4023135","9.670634","stand up","1"
"119748910074995","3","0.051742375","1.4190818","9.728126","stand up","1"
"119748929979110","3","0.044555962","1.4238728","9.689797","stand up","1"
"119748949848068","3","0.051742375","1.3663813","9.613143","stand up","1"
"119748969752182","3","0.056533396","1.3759633","9.668239","stand up","1"
"119748989662339","3","0.054137886","1.4071045","9.682611","stand up","1"
"119749009566401","3","0.046951473","1.3975226","9.6562605","stand up","1"
"119749029505828","3","0.04216051","1.3879406","9.658657","stand up","1"
"119749049409943","3","0.049346924","1.395127","9.711357","stand up","1"
"119749069312495","3","0.06851077","1.3999181","9.653866","stand up","1"
"119749089216610","3","0.051742375","1.3855451","9.634702","stand up","1"
"119749109095203","3","0.046951473","1.4142909","9.668239","stand up","1"
"119749128999266","3","0.049346924","1.3999181","9.641888","stand up","1"
"119749148903380","3","0.054137886","1.390336","9.65147","stand up","1"
"119749168807495","3","0.04216051","1.3927315","9.682611","stand up","1"
"119749188745724","3","0.054137886","1.4142909","9.658657","stand up","1"
"119749208649839","3","0.049346924","1.3927315","9.617934","stand up","1"
"119749228527235","3","0.049346924","1.4071045","9.658657","stand up","1"
"119749248431297","3","0.04216051","1.404709","9.677821","stand up","1"
"119749268332755","3","0.049346924","1.3855451","9.653866","stand up","1"
"119749288236870","3","0.0349741","1.390336","9.670634","stand up","1"
"119749308147026","3","0.044555962","1.404709","9.670634","stand up","1"
"119749328051141","3","0.056533396","1.3999181","9.646679","stand up","1"
"119749347952130","3","0.039765","1.390336","9.668239","stand up","1"
"119749367856245","3","0.0349741","1.4095","9.680216","stand up","1"
"119749387771037","3","0.049346924","1.4023135","9.665843","stand up","1"
"119749407675099","3","0.0613243","1.395127","9.6562605","stand up","1"
"119749427573589","3","0.06371975","1.395127","9.653866","stand up","1"
"119749447477755","3","0.06371975","1.3855451","9.6562605","stand up","1"
"119749467406037","3","0.054137886","1.3879406","9.6562605","stand up","1"
"119749487310151","3","0.054137886","1.4118955","9.661052","stand up","1"
"119749507205099","3","0.027787626","1.3999181","9.677821","stand up","1"
"119749527109162","3","0.027787626","1.3999181","9.67303","stand up","1"
"119749547012964","3","0.054137886","1.3855451","9.675425","stand up","1"
"119749566917078","3","0.058928847","1.3831497","9.682611","stand up","1"
"119749586842130","3","0.046951473","1.404709","9.641888","stand up","1"
"119749606746245","3","0.046951473","1.3879406","9.663447","stand up","1"
"119749626630412","3","0.044555962","1.390336","9.665843","stand up","1"
"119749646534526","3","0.051742375","1.395127","9.658657","stand up","1"
"119749666447235","3","0.054137886","1.3879406","9.658657","stand up","1"
"119749686351297","3","0.058928847","1.395127","9.637098","stand up","1"
"119749706247287","3","0.056533396","1.3831497","9.646679","stand up","1"
"119749726151401","3","0.046951473","1.3999181","9.67303","stand up","1"
"119749746095724","3","0.04216051","1.3855451","9.696984","stand up","1"
"119749765999891","3","0.054137886","1.3807542","9.680216","stand up","1"
"119749785884943","3","0.049346924","1.3999181","9.665843","stand up","1"
"119749805789057","3","0.054137886","1.3999181","9.661052","stand up","1"
"119749825691193","3","0.056533396","1.3927315","9.637098","stand up","1"
"119749845595255","3","0.046951473","1.3927315","9.677821","stand up","1"
"119749865509214","3","0.054137886","1.4023135","9.677821","stand up","1"
"119749885413328","3","0.044555962","1.4023135","9.658657","stand up","1"
"119749905339162","3","0.046951473","1.3879406","9.665843","stand up","1"
"119749925243276","3","0.054137886","1.395127","9.6562605","stand up","1"
"119749945152964","3","0.039765","1.3927315","9.658657","stand up","1"
"119749965057078","3","0.049346924","1.3879406","9.665843","stand up","1"
"119749984946818","3","0.051742375","1.395127","9.668239","stand up","1"
"119750004850985","3","0.046951473","1.395127","9.649075","stand up","1"
"119750024774787","3","0.03736949","1.404709","9.668239","stand up","1"
"119750044678901","3","0.046951473","1.3927315","9.675425","stand up","1"
"119750064585099","3","0.039765","1.3999181","9.677821","stand up","1"
"119750084489214","3","0.046951473","1.4023135","9.67303","stand up","1"
"119750104390776","3","0.04216051","1.390336","9.658657","stand up","1"
"119750124294839","3","0.039765","1.3879406","9.661052","stand up","1"
"119750144206193","3","0.051742375","1.395127","9.677821","stand up","1"
"119750164110307","3","0.04216051","1.395127","9.680216","stand up","1"
"119750184019110","3","0.056533396","1.4095","9.658657","stand up","1"
"119750203923224","3","0.03736949","1.3927315","9.668239","stand up","1"
"119750223828432","3","0.044555962","1.3927315","9.653866","stand up","1"
"119750243732599","3","0.049346924","1.395127","9.646679","stand up","1"
"119750263603901","3","0.044555962","1.390336","9.663447","stand up","1"
"119750283508276","3","0.049346924","1.3879406","9.649075","stand up","1"
"119750303438068","3","0.044555962","1.4118955","9.649075","stand up","1"
"119750323342391","3","0.054137886","1.4023135","9.663447","stand up","1"
"119750343236193","3","0.056533396","1.3831497","9.653866","stand up","1"
"119750363140568","3","0.06611526","1.3927315","9.646679","stand up","1"
"119750383055203","3","0.039765","1.3927315","9.665843","stand up","1"
"119750402959578","3","0.039765","1.3927315","9.677821","stand up","1"
"119750422881557","3","0.054137886","1.4023135","9.65147","stand up","1"
"119750442785932","3","0.046951473","1.404709","9.653866","stand up","1"
"119750462703901","3","0.044555962","1.3927315","9.680216","stand up","1"
"119750482608276","3","0.054137886","1.3783587","9.663447","stand up","1"
"119750502492026","3","0.032578588","1.3879406","9.677821","stand up","1"
"119750522396401","3","0.046951473","1.3807542","9.661052","stand up","1"
"119750542289787","3","0.049346924","1.3927315","9.668239","stand up","1"
"119750562194162","3","0.058928847","1.3807542","9.67303","stand up","1"
"119750582098172","3","0.049346924","1.404709","9.665843","stand up","1"
"119750621925360","3","0.056533396","1.3855451","9.658657","stand up","1"
"119750641829682","3","0.049346924","1.4071045","9.661052","none","2"
"119750661746245","3","0.0349741","1.3999181","9.658657","none","2"
"119750681650672","3","0.056533396","1.3807542","9.6562605","none","2"
"119750701550932","3","0.058928847","1.3879406","9.6562605","none","2"
"119750721455307","3","0.04216051","1.404709","9.661052","none","2"
"119750741352860","3","0.044555962","1.3999181","9.6562605","none","2"
"119750761257235","3","0.049346924","1.390336","9.665843","none","2"
"119750781169474","3","0.046951473","1.3855451","9.658657","none","2"
"119750801073849","3","0.049346924","1.4023135","9.668239","none","2"
"119750820999057","3","0.044555962","1.4023135","9.658657","none","2"
"119750840903485","3","0.04216051","1.390336","9.668239","none","2"
"119750860811557","3","0.058928847","1.3927315","9.665843","none","2"
"119750880715932","3","0.0613243","1.3807542","9.670634","none","2"
"119750900615985","3","0.030183077","1.3879406","9.646679","none","2"
"119750920520307","3","0.030183077","1.3975226","9.661052","none","2"
"119750940437703","3","0.054137886","1.3975226","9.67303","none","2"
"119750960342130","3","0.044555962","1.390336","9.675425","none","2"
"119750980252287","3","0.056533396","1.3927315","9.675425","none","2"
"119751000156662","3","0.054137886","1.3807542","9.653866","none","2"
"119751020061245","3","0.044555962","1.395127","9.653866","none","2"
"119751039965620","3","0.03736949","1.3975226","9.661052","none","2"
"119751059845985","3","0.049346924","1.390336","9.663447","none","2"
"119751079750360","3","0.0349741","1.395127","9.670634","none","2"
"119751099679839","3","0.0613243","1.3999181","9.6562605","none","2"
"119751119584214","3","0.032578588","1.395127","9.661052","none","2"
"119751139488797","3","0.04216051","1.395127","9.682611","none","2"
"119751159393120","3","0.051742375","1.404709","9.668239","none","2"
"119751179313432","3","0.039765","1.395127","9.668239","none","2"
"119751199217807","3","0.032578588","1.4023135","9.670634","none","2"
"119751219114630","3","0.051742375","1.395127","9.675425","none","2"
"119751239019005","3","0.0349741","1.395127","9.658657","none","2"
"119751258925464","3","0.030183077","1.3975226","9.637098","none","2"
"119751278829839","3","0.032578588","1.3975226","9.661052","none","2"
"119751298712287","3","0.039765","1.3927315","9.668239","none","2"
"119751318616610","3","0.039765","1.3927315","9.670634","none","2"
"119751338546193","3","0.04216051","1.3855451","9.665843","none","2"
"119751358450568","3","0.044555962","1.3759633","9.6562605","none","2"
"119751378377599","3","0.049346924","1.3879406","9.653866","none","2"
"119751398281974","3","0.051742375","1.395127","9.668239","none","2"
"119751418183849","3","0.056533396","1.395127","9.663447","none","2"
"119751438088224","3","0.046951473","1.4118955","9.680216","none","2"
"119751457983745","3","0.032578588","1.3855451","9.692194","none","2"
"119751477888120","3","0.0349741","1.4071045","9.675425","none","2"
"119751497792287","3","0.049346924","1.4023135","9.6562605","none","2"
"119751517696610","3","0.049346924","1.3999181","9.663447","none","2"
"119751537610672","3","0.044555962","1.404709","9.670634","none","2"
"119751557515047","3","0.022996664","1.3927315","9.663447","none","2"
"119751577406766","3","0.044555962","1.390336","9.668239","none","2"
"119751597311089","3","0.044555962","1.3975226","9.668239","none","2"
"119751617231349","3","0.039765","1.4023135","9.646679","none","2"
"119751637136037","3","0.039765","1.3975226","9.658657","none","2"
"119751657041245","3","0.039765","1.3999181","9.65147","none","2"
"119751676945985","3","0.04216051","1.404709","9.644284","none","2"
