"Timestamp","Accuracy","Acceleration X","Acceleration Y","Acceleration Z","Label","Cycle"
"120429201504883","3","-1.0621551","-0.097256005","9.649075","stand up","0"
"120429221425665","3","-1.0118501","-0.094860554","9.828736","none","1"
"120429241318113","3","-1.0382004","-0.07569671","9.675425","none","1"
"120429261238894","3","-1.0525732","-0.07569671","9.761662","none","1"
"120429281185040","3","-1.0334094","-0.07569671","9.740103","none","1"
"120429301105873","3","-1.0214319","-0.10683793","9.723335","none","1"
"120429321012644","3","-1.0477822","-0.08527863","9.768848","none","1"
"120429340933425","3","-1.0597596","-0.068510264","9.723335","none","1"
"120429360877436","3","-1.0429913","-0.09006956","9.7089615","none","1"
"120429380798269","3","-1.0405958","-0.09246507","9.744894","none","1"
"120429400711706","3","-0.99029076","-0.08527863","9.718544","none","1"
"120429420632540","3","-0.99508166","-0.09006956","9.744894","none","1"
"120429440566186","3","-1.0142455","-0.11641985","9.728126","none","1"
"120429460486967","3","-1.0190365","-0.12121078","9.716147","none","1"
"120429480421758","3","-1.0286185","-0.11402434","9.72573","none","1"
"120429500342592","3","-1.0118501","-0.11641985","9.701775","none","1"
"120429520234623","3","-1.0142455","-0.12121078","9.706566","none","1"
"120429540155404","3","-1.026223","-0.12121078","9.716147","none","1"
"120429560114883","3","-1.0238274","-0.10683793","9.723335","none","1"
"120429580035717","3","-1.0382004","-0.09246507","9.72573","none","1"
"120429599915925","3","-1.0334094","-0.11881533","9.711357","none","1"
"120429619836706","3","-0.9711269","-0.11641985","9.742498","none","1"
"120429639785456","3","-0.98070884","-0.11881533","9.716147","none","1"
"120429659706290","3","-0.9998727","-0.10923341","9.716147","none","1"
"120429679637331","3","-1.0286185","-0.10444245","9.756871","none","1"
"120429699564675","3","-1.0382004","-0.11402434","9.728126","none","1"
"120429719495092","3","-1.026223","-0.10683793","9.711357","none","1"
"120429739415821","3","-1.0094546","-0.10444245","9.737708","none","1"
"120429759317696","3","-0.9926863","-0.12121078","9.732917","none","1"
"120429779238529","3","-1.0094546","-0.10923341","9.737708","none","1"
"120429799142331","3","-1.0142455","-0.10683793","9.696984","none","1"
"120429819063165","3","-1.016641","-0.10204697","9.737708","none","1"
"120429838993008","3","-1.0094546","-0.10683793","9.749685","none","1"
"120429858913842","3","-0.9974772","-0.123606294","9.718544","none","1"
"120429878823477","3","-0.98789525","-0.10204697","9.701775","none","1"
"120429898744258","3","-0.99508166","-0.10204697","9.704171","none","1"
"120429918688113","3","-1.0022681","-0.11162889","9.728126","none","1"
"120429938608946","3","-1.0070591","-0.11162889","9.7353115","none","1"
"120429958535508","3","-0.9998727","-0.10204697","9.716147","none","1"
"120429978456342","3","-1.0118501","-0.10444245","9.723335","none","1"
"120429998367175","3","-0.9926863","-0.099651486","9.754476","none","1"
"120430018288008","3","-0.99029076","-0.097256005","9.704171","none","1"
"120430038226706","3","-1.0046636","-0.10683793","9.7089615","none","1"
"120430058147540","3","-1.026223","-0.11881533","9.740103","none","1"
"120430078069571","3","-1.026223","-0.10923341","9.728126","none","1"
"120430097990404","3","-1.026223","-0.11162889","9.713753","none","1"
"120430117933321","3","-1.0118501","-0.10204697","9.7353115","none","1"
"120430137853998","3","-1.0142455","-0.11162889","9.732917","none","1"
"120430157737123","3","-1.0142455","-0.10683793","9.716147","none","1"
"120430177657904","3","-1.0190365","-0.12600175","9.728126","none","1"
"120430197607279","3","-1.0214319","-0.094860554","9.730521","none","1"
"120430217528113","3","-1.0070591","-0.11162889","9.7353115","none","1"
"120430237445040","3","-1.016641","-0.123606294","9.72573","none","1"
"120430257365821","3","-1.0094546","-0.10683793","9.730521","none","1"
"120430277300508","3","-1.0046636","-0.10204697","9.713753","none","1"
"120430297221342","3","-1.0046636","-0.10923341","9.723335","none","1"
"120430317144050","3","-0.9998727","-0.11402434","9.72573","none","1"
"120430337064883","3","-1.0022681","-0.11162889","9.737708","none","1"
"120430356999727","3","-0.9998727","-0.09006956","9.737708","none","1"
"120430376920508","3","-1.016641","-0.10683793","9.728126","none","1"
"120430396832175","3","-0.9926863","-0.10204697","9.740103","none","1"
"120430416753008","3","-1.0046636","-0.11641985","9.740103","none","1"
"120430436643686","3","-1.0070591","-0.10683793","9.716147","none","1"
"120430456564467","3","-1.0190365","-0.10923341","9.732917","none","1"
"120430476530300","3","-1.0190365","-0.10923341","9.749685","none","1"
"120430496451133","3","-1.0214319","-0.10923341","9.718544","none","1"
"120430516370040","3","-1.0094546","-0.10444245","9.72573","none","1"
"120430536290821","3","-1.016641","-0.11881533","9.7353115","none","1"
"120430556229415","3","-1.0094546","-0.11641985","9.7353115","none","1"
"120430576150248","3","-1.0214319","-0.11641985","9.737708","none","1"
"120430596068894","3","-1.0094546","-0.10923341","9.716147","none","1"
"120430615989727","3","-1.0190365","-0.10683793","9.730521","none","1"
"120430635923061","3","-1.0142455","-0.10444245","9.7353115","none","1"
"120430655843842","3","-1.0046636","-0.10204697","9.756871","none","1"
"120430675757436","3","-0.99508166","-0.11402434","9.72573","none","1"
"120430695678269","3","-1.0046636","-0.11402434","9.720939","none","1"
"120430715602956","3","-1.0286185","-0.10444245","9.720939","none","1"
"120430735523738","3","-1.0118501","-0.10923341","9.7353115","none","1"
"120430755444988","3","-1.0046636","-0.10444245","9.740103","none","1"
"120430775366029","3","-1.0094546","-0.10204697","9.740103","none","1"
"120430795308165","3","-1.0142455","-0.11402434","9.723335","none","1"
"120430815229258","3","-1.0118501","-0.10923341","9.723335","none","1"
"120430835163633","3","-1.0118501","-0.10204697","9.732917","none","1"
"120430855084675","3","-1.0142455","-0.10923341","9.716147","none","1"
"120430875000040","3","-1.0118501","-0.10923341","9.72573","none","1"
"120430894921081","3","-1.0070591","-0.11641985","9.728126","none","1"
"120430914842956","3","-1.0142455","-0.11162889","9.728126","none","1"
"120430934763998","3","-1.0142455","-0.11881533","9.742498","none","1"
"120430954673217","3","-1.0286185","-0.099651486","9.742498","none","1"
"120430974594258","3","-1.0046636","-0.10923341","9.744894","none","1"
"120430994531967","3","-1.016641","-0.10923341","9.716147","none","1"
"120431014453008","3","-1.0070591","-0.11641985","9.723335","none","1"
"120431034355769","3","-0.9998727","-0.10683793","9.74729","none","1"
"120431054276811","3","-1.0142455","-0.10204697","9.737708","none","1"
"120431074161081","3","-1.0286185","-0.10683793","9.716147","none","1"
"120431094082123","3","-1.0286185","-0.10204697","9.74729","none","1"
"120431114063633","3","-1.0046636","-0.11162889","9.737708","none","1"
"120431133984623","3","-0.9998727","-0.13318819","9.706566","none","1"
"120431153915873","3","-1.0022681","-0.11641985","9.718544","none","1"
"120431173836915","3","-1.0190365","-0.10444245","9.7353115","none","1"
"120431193757436","3","-0.9998727","-0.10923341","9.74729","none","1"
"120431213678477","3","-1.016641","-0.10683793","9.7089615","none","1"
"120431233585404","3","-1.0046636","-0.11881533","9.72573","none","1"
"120431253506446","3","-1.0022681","-0.11881533","9.728126","none","1"
"120431273443061","3","-0.9974772","-0.12600175","9.704171","none","1"
"120431293364102","3","-1.0142455","-0.12121078","9.740103","none","1"
"120431313292904","3","-1.0214319","-0.09246507","9.744894","none","1"
"120431333213946","3","-1.016641","-0.10683793","9.716147","none","1"
"120431353125873","3","-0.9974772","-0.11162889","9.706566","none","1"
"120431373046915","3","-0.99508166","-0.10204697","9.732917","none","1"
"120431392975717","3","-0.9926863","-0.10923341","9.718544","none","1"
"120431412896758","3","-1.016641","-0.11402434","9.723335","none","1"
"120431432844467","3","-1.0286185","-0.11162889","9.742498","none","1"
"120431452765508","3","-1.0190365","-0.11881533","9.744894","none","1"
"120431472672227","3","-1.0142455","-0.10923341","9.744894","none","1"
"120431492593217","3","-0.9998727","-0.11162889","9.728126","none","1"
"120431512521706","3","-1.0142455","-0.11881533","9.711357","none","1"
"120431532442748","3","-1.0238274","-0.11162889","9.723335","none","1"
"120431552356550","3","-1.0118501","-0.097256005","9.7353115","none","1"
"120431572277592","3","-1.0046636","-0.12121078","9.730521","none","1"
"120431592207279","3","-0.9974772","-0.10923341","9.723335","none","1"
"120431612128321","3","-1.0094546","-0.10444245","9.74729","none","1"
"120431632018946","3","-1.016641","-0.11881533","9.711357","none","1"
"120431651940040","3","-0.99508166","-0.10683793","9.696984","none","1"
"120431671904363","3","-1.0046636","-0.10683793","9.742498","none","1"
"120431691825404","3","-1.0214319","-0.12121078","9.74729","none","1"
"120431711722123","3","-0.9974772","-0.11641985","9.713753","none","1"
"120431731643217","3","-1.0142455","-0.099651486","9.713753","none","1"
"120431751576967","3","-1.0142455","-0.11162889","9.737708","none","1"
"120431771498008","3","-1.0046636","-0.11402434","9.7089615","none","1"
"120431791433581","3","-0.99029076","-0.097256005","9.7089615","none","1"
"120431811354988","3","-1.0094546","-0.10204697","9.7353115","none","1"
"120431831271758","3","-1.016641","-0.11162889","9.72573","none","1"
"120431851193165","3","-1.0190365","-0.11162889","9.711357","none","1"
"120431871103633","3","-1.0022681","-0.10204697","9.737708","none","1"
"120431891025040","3","-1.0118501","-0.12121078","9.723335","none","1"
"120431910960040","3","-1.0190365","-0.11641985","9.716147","none","1"
"120431930881446","3","-1.0094546","-0.12121078","9.737708","none","1"
"120431950798894","3","-1.0046636","-0.13318819","9.740103","none","1"
"120431970720300","3","-0.9998727","-0.123606294","9.728126","none","1"
"120431990642383","3","-1.0046636","-0.11162889","9.728126","none","1"
"120432010563842","3","-0.9998727","-0.11881533","9.737708","none","1"
"120432030478165","3","-1.016641","-0.11402434","9.723335","none","1"
"120432050399571","3","-1.0286185","-0.10683793","9.718544","none","1"
"120432070347852","3","-1.0022681","-0.11402434","9.716147","none","1"
"120432090269258","3","-1.0118501","-0.11402434","9.742498","none","1"
"120432110188165","3","-1.0118501","-0.10204697","9.7353115","none","1"
"120432130109623","3","-1.0118501","-0.11641985","9.728126","none","1"
"120432150038946","3","-1.0190365","-0.10923341","9.723335","none","1"
"120432169960352","3","-1.0070591","-0.11402434","9.737708","none","1"
"120432189873581","3","-1.0094546","-0.12121078","9.732917","none","1"
"120432209795040","3","-1.0094546","-0.10444245","9.720939","none","1"
"120432229716238","3","-0.99508166","-0.11881533","9.730521","none","1"
"120432249637644","3","-1.0094546","-0.11162889","9.728126","none","1"
"120432269538790","3","-1.0382004","-0.11402434","9.732917","none","1"
"120432289460248","3","-1.0142455","-0.10683793","9.742498","none","1"
"120432309420300","3","-0.9974772","-0.10683793","9.716147","none","1"
"120432329341706","3","-0.9998727","-0.11641985","9.718544","none","1"
"120432349267123","3","-1.0142455","-0.10683793","9.730521","none","1"
"120432369188529","3","-1.0142455","-0.11162889","9.742498","none","1"
"120432389119467","3","-1.0070591","-0.11402434","9.744894","none","1"
"120432409040925","3","-1.0190365","-0.10923341","9.718544","none","1"
"120432428962488","3","-1.0238274","-0.12121078","9.75208","none","1"
"120432448883894","3","-1.0238274","-0.11641985","9.737708","none","1"
"120432468813321","3","-1.0070591","-0.10683793","9.730521","none","1"
"120432488734727","3","-1.0118501","-0.10683793","9.7353115","none","1"
"120432508661967","3","-1.0022681","-0.11641985","9.728126","none","1"
"120432528583373","3","-1.0094546","-0.11162889","9.732917","none","1"
"120432548486967","3","-1.0118501","-0.10923341","9.742498","none","1"
"120432568408373","3","-0.9926863","-0.11641985","9.723335","none","1"
"120432588342956","3","-1.0118501","-0.12121078","9.728126","none","1"
"120432608264363","3","-1.0118501","-0.11402434","9.732917","none","1"
"120432628185040","3","-1.0214319","-0.10923341","9.732917","none","1"
"120432648106446","3","-0.9926863","-0.11402434","9.716147","none","1"
"120432668048842","3","-1.016641","-0.10923341","9.75208","none","1"
"120432687970300","3","-1.0190365","-0.10683793","9.737708","none","1"
"120432707896446","3","-1.0334094","-0.11162889","9.728126","none","1"
"120432727817852","3","-1.0070591","-0.11881533","9.718544","none","1"
"120432747744363","3","-1.0046636","-0.11881533","9.713753","none","1"
"120432767665769","3","-1.0214319","-0.12121078","9.728126","none","1"
"120432787569936","3","-1.016641","-0.11881533","9.737708","none","1"
"120432807491342","3","-1.0046636","-0.11641985","9.718544","none","1"
"120432827417956","3","-1.0238274","-0.10204697","9.7089615","none","1"
"120432847339623","3","-1.0190365","-0.10444245","9.72573","none","1"
"120432867283894","3","-1.0094546","-0.11641985","9.740103","none","1"
"120432887205613","3","-1.0094546","-0.11162889","9.730521","none","1"
"120432907123425","3","-1.016641","-0.123606294","9.716147","none","1"
"120432927045144","3","-1.016641","-0.10923341","9.737708","none","1"
"120432946967123","3","-1.0022681","-0.11162889","9.744894","none","1"
"120432966888790","3","-0.99508166","-0.099651486","9.718544","none","1"
"120432986809467","3","-1.0118501","-0.11402434","9.732917","none","1"
"120433006731186","3","-1.0118501","-0.11641985","9.730521","none","1"
"120433026661654","3","-1.0046636","-0.11881533","9.7353115","none","1"
"120433046583373","3","-0.9974772","-0.12121078","9.730521","none","1"
"120433066482071","3","-1.0046636","-0.10923341","9.711357","none","1"
"120433086403790","3","-1.0118501","-0.10683793","9.713753","sit down","1"
"120433106329363","3","-0.9998727","-0.12121078","9.730521","sit down","1"
"120433126251081","3","-0.9926863","-0.11881533","9.728126","sit down","1"
"120433146179258","3","-1.0070591","-0.11881533","9.720939","sit down","1"
"120433166100977","3","-1.0118501","-0.10444245","9.716147","sit down","1"
"120433185997488","3","-1.0022681","-0.11881533","9.69938","sit down","1"
"120433205919206","3","-1.0022681","-0.11162889","9.742498","sit down","1"
"120433225897227","3","-1.0022681","-0.10444245","9.732917","sit down","1"
"120433245818946","3","-1.0118501","-0.11881533","9.737708","sit down","1"
"120433265747019","3","-1.0046636","-0.10683793","9.69938","sit down","1"
"120433285668738","3","-1.0070591","-0.11881533","9.716147","sit down","1"
"120433305584571","3","-1.0094546","-0.11641985","9.718544","sit down","1"
"120433325506290","3","-1.0118501","-0.10923341","9.732917","sit down","1"
"120433345439571","3","-1.0142455","-0.099651486","9.716147","sit down","1"
"120433365361290","3","-1.0046636","-0.11881533","9.718544","sit down","1"
"120433385253373","3","-0.9998727","-0.10683793","9.749685","sit down","1"
"120433405175092","3","-1.0190365","-0.12121078","9.720939","sit down","1"
"120433425136394","3","-0.9974772","-0.11162889","9.730521","sit down","1"
"120433445058113","3","-0.9974772","-0.10923341","9.732917","sit down","1"
"120433464963529","3","-1.0142455","-0.10683793","9.728126","sit down","1"
"120433484885248","3","-1.0142455","-0.12121078","9.72573","sit down","1"
"120433504806550","3","-1.016641","-0.11402434","9.718544","sit down","1"
"120433524728217","3","-1.0118501","-0.11162889","9.718544","sit down","1"
"120433544653529","3","-1.0022681","-0.11641985","9.72573","sit down","1"
"120433564575248","3","-1.0070591","-0.11402434","9.72573","sit down","1"
"120433584519467","3","-1.0238274","-0.10683793","9.72573","sit down","1"
"120433604441133","3","-1.0190365","-0.11402434","9.737708","sit down","1"
"120433624339727","3","-0.9926863","-0.11641985","9.711357","sit down","1"
"120433644261446","3","-1.0070591","-0.11881533","9.75208","sit down","1"
"120433664201915","3","-1.0046636","-0.11162889","9.749685","sit down","1"
"120433684123633","3","-1.0142455","-0.11641985","9.732917","sit down","1"
"120433704030404","3","-1.0286185","-0.09246507","9.728126","sit down","1"
"120433723952123","3","-1.0046636","-0.10683793","9.718544","sit down","1"
"120433743899936","3","-1.0142455","-0.11402434","9.713753","sit down","1"
"120433763821654","3","-1.0022681","-0.1307927","9.711357","sit down","1"
"120433783715925","3","-1.0022681","-0.123606294","9.7353115","sit down","1"
"120433803637644","3","-1.0094546","-0.11162889","9.728126","sit down","1"
"120433823568842","3","-1.0238274","-0.094860554","9.732917","sit down","1"
"120433843490561","3","-0.9998727","-0.10444245","9.737708","sit down","1"
"120433863416811","3","-1.0094546","-0.10683793","9.716147","sit down","1"
"120433883338686","3","-0.99508166","-0.10923341","9.711357","sit down","1"
"120433903267331","3","-1.0046636","-0.123606294","9.718544","sit down","1"
"120433923189258","3","-0.9998727","-0.11641985","9.730521","sit down","1"
"120433943106498","3","-1.0142455","-0.12121078","9.756871","sit down","1"
"120433963028425","3","-1.016641","-0.11402434","9.732917","sit down","1"
"120433982953581","3","-0.99029076","-0.11402434","9.720939","sit down","1"
"120434002875508","3","-0.9974772","-0.123606294","9.732917","sit down","1"
"120434022771967","3","-1.026223","-0.11881533","9.74729","sit down","1"
"120434042693998","3","-1.0837145","-0.11641985","9.718544","sit down","1"
"120434062635144","3","-0.7866751","-0.06371933","9.689797","sit down","1"
"120434082557071","3","-1.0741324","-0.13797912","9.716147","sit down","1"
"120434102475300","3","-1.0837145","-0.14756107","9.79999","sit down","1"
"120434122397227","3","-1.0334094","-0.10683793","9.644284","sit down","1"
"120434142316081","3","-0.95196307","-0.097256005","9.622725","sit down","1"
"120434162238008","3","-1.0046636","-0.123606294","9.797595","sit down","1"
"120434182187019","3","-1.0022681","-0.10204697","9.795198","sit down","1"
"120434202108946","3","-1.0741324","-0.10444245","9.716147","sit down","1"
"120434222033790","3","-1.0358049","-0.15474752","9.622725","sit down","1"
"120434241955717","3","-0.91603094","-0.11881533","9.69938","sit down","1"
"120434261866133","3","-0.98070884","-0.073301226","9.792804","sit down","1"
"120434281788113","3","-1.0334094","-0.099651486","9.807176","sit down","1"
"120434301699206","3","-1.0453868","-0.14516556","9.646679","sit down","1"
"120434321621133","3","-1.0334094","-0.10444245","9.689797","sit down","1"
"120434341529154","3","-1.0046636","-0.10204697","9.759267","sit down","1"
"120434361451081","3","-0.9854998","-0.152352","9.720939","sit down","1"
"120434381410352","3","-1.0429913","-0.09246507","9.740103","sit down","1"
"120434401332331","3","-1.0070591","-0.09246507","9.69938","sit down","1"
"120434421219675","3","-1.0645506","-0.11881533","9.701775","sit down","1"
"120434441141602","3","-0.9759179","-0.12121078","9.771244","sit down","1"
"120434461068581","3","-0.9783133","-0.10923341","9.732917","sit down","1"
"120434480990508","3","-1.0142455","-0.11162889","9.7089615","sit down","1"
"120434500906550","3","-1.0334094","-0.13558367","9.701775","sit down","1"
"120434520828477","3","-1.0837145","-0.094860554","9.713753","sit down","1"
"120434540750977","3","-1.1340195","-0.08767411","9.706566","sit down","1"
"120434560672956","3","-1.0813189","-0.097256005","9.718544","sit down","1"
"120434580590404","3","-1.0022681","-0.18349329","9.7089615","sit down","1"
"120434600512383","3","-1.0597596","-0.14277011","9.69938","sit down","1"
"120434620466602","3","-1.0429913","-0.05892834","9.663447","sit down","1"
"120434640388529","3","-1.0334094","-0.08048767","9.7089615","sit down","1"
"120434660295092","3","-1.0980873","-0.12600175","9.720939","sit down","1"
"120434680217019","3","-1.0837145","-0.15714297","9.728126","sit down","1"
"120434700156238","3","-1.1340195","-0.10444245","9.74729","sit down","1"
"120434720078165","3","-1.1124601","-0.10683793","9.680216","sit down","1"
"120434739994467","3","-1.1771381","-0.10923341","9.57242","sit down","1"
"120434759916446","3","-1.0885054","-0.06371933","9.605956","sit down","1"
"120434779846133","3","-1.0214319","-0.097256005","9.77364","sit down","1"
"120434799768061","3","-1.0932963","-0.11641985","9.67303","sit down","1"
"120434819658686","3","-1.016641","-0.17630681","9.677821","sit down","1"
"120434839580613","3","-0.98789525","-0.14516556","9.797595","sit down","1"
"120434859512696","3","-0.95914954","-0.212239","9.859877","sit down","1"
"120434879434675","3","-0.9495676","-0.18588868","9.756871","sit down","1"
"120434899375300","3","-0.89926255","-0.14995655","9.7353115","sit down","1"
"120434919297331","3","-1.016641","-0.11162889","9.593979","sit down","1"
"120434939186394","3","-1.2058839","-0.15953842","9.560442","sit down","1"
"120434959108425","3","-1.1675562","-0.21942547","9.74729","sit down","1"
"120434979053738","3","-1.1843245","-0.18588868","9.871854","sit down","1"
"120434998975717","3","-1.3759627","-0.11402434","9.567629","sit down","1"
"120435018876915","3","-1.3424261","-0.08527863","9.411922","sit down","1"
"120435038798946","3","-1.5172961","-0.17870227","9.771244","sit down","1"
"120435058758686","3","-1.6394655","-0.24817112","9.958092","sit down","1"
"120435078668373","3","-1.4789684","-0.26973042","10.061097","sit down","1"
"120435098590300","3","-1.3496125","-0.3152446","9.960486","sit down","1"
"120435118488738","3","-1.306494","-0.2864988","9.804781","sit down","1"
"120435138410717","3","-1.2753527","-0.23619375","9.720939","sit down","1"
"120435158357175","3","-1.2657708","-0.22182086","9.737708","sit down","1"
"120435178279206","3","-1.2394205","-0.24817112","9.730521","sit down","1"
"120435198157383","3","-1.1531833","-0.26493952","9.608352","sit down","1"
"120435218079415","3","-1.1220421","-0.19547066","9.534092","sit down","1"
"120435238014936","3","-1.0885054","-0.18828419","9.522115","sit down","1"
"120435257936967","3","-1.131624","-0.24098471","9.706566","sit down","1"
"120435277885508","3","-1.1459968","-0.23858926","9.790408","sit down","1"
"120435297807540","3","-1.1196465","-0.20026156","9.768848","sit down","1"
"120435317724675","3","-1.1172512","-0.15953842","9.675425","sit down","1"
"120435337646654","3","-1.1028782","-0.20026156","9.574815","sit down","1"
"120435357542436","3","-1.136415","-0.23379824","9.567629","sit down","1"
"120435377464415","3","-1.1603698","-0.212239","9.682611","sit down","1"
"120435397380352","3","-1.1459968","-0.20744804","9.778431","sit down","1"
"120435417302436","3","-1.1412059","-0.22182086","9.74729","sit down","1"
"120435437257436","3","-1.1579742","-0.22900733","9.728126","sit down","1"
"120435457179467","3","-1.2322341","-0.21702996","9.67303","sit down","1"
"120435477084363","3","-1.2657708","-0.20505258","9.694589","sit down","1"
"120435497006394","3","-1.2681663","-0.20505258","9.778431","sit down","1"
"120435516904571","3","-1.2993075","-0.22182086","9.69938","sit down","1"
"120435536826602","3","-1.2873302","-0.22900733","9.682611","sit down","1"
"120435556777644","3","-1.2513978","-0.22900733","9.838318","sit down","1"
"120435576699623","3","-1.2729573","-0.20744804","9.811967","sit down","1"
"120435596591081","3","-1.3352396","-0.18349329","9.589188","sit down","1"
"120435616513061","3","-1.2945166","-0.20265707","9.819154","sit down","1"
"120435636454050","3","-1.1939064","-0.23619375","10.032351","sit down","1"
"120435656376029","3","-1.1603698","-0.25296214","9.761662","sit down","1"
"120435676297696","3","-1.241816","-0.18349329","9.443064","sit down","1"
"120435696219727","3","-1.2561889","-0.18109778","9.558047","sit down","1"
"120435716133738","3","-1.1675562","-0.2769169","9.9533","sit down","1"
"120435736055717","3","-1.1244376","-0.29128978","9.876645","sit down","1"
"120435755945769","3","-1.1124601","-0.2553576","9.5436735","sit down","1"
"120435775867852","3","-1.1412059","-0.20505258","9.500555","sit down","1"
"120435795818373","3","-1.1939064","-0.1906797","9.644284","sit down","1"
"120435815740352","3","-1.1723471","-0.22182086","9.809572","sit down","1"
"120435835674675","3","-1.1340195","-0.21702996","9.785617","sit down","1"
"120435855596706","3","-1.1220421","-0.19307515","9.639493","sit down","1"
"120435875514154","3","-1.1723471","-0.1739113","9.584397","sit down","1"
"120435895436133","3","-1.1651607","-0.16432944","9.668239","sit down","1"
"120435915326967","3","-1.1843245","-0.18349329","9.696984","sit down","1"
"120435935248998","3","-1.1675562","-0.23619375","9.754476","sit down","1"
"120435955196446","3","-1.1531833","-0.25056663","9.785617","sit down","1"
"120435975118477","3","-1.1483923","-0.24817112","9.706566","sit down","1"
"120435995013217","3","-1.1723471","-0.262544","9.685007","sit down","1"
"120436014935248","3","-1.1723471","-0.22661188","9.706566","sit down","1"
"120436034851654","3","-1.1939064","-0.20265707","9.749685","sit down","1"
"120436054773686","3","-1.1915109","-0.19786611","9.776035","sit down","1"
"120436074736706","3","-1.2034883","-0.21702996","9.716147","sit down","1"
"120436094658738","3","-1.2154658","-0.21702996","9.677821","sit down","1"
"120436114578529","3","-1.2058839","-0.21463445","9.732917","sit down","1"
"120436134500404","3","-1.1819291","-0.21702996","9.742498","sit down","1"
"120436154419102","3","-1.18672","-0.21942547","9.713753","sit down","1"
"120436174340977","3","-1.1986973","-0.212239","9.641888","sit down","1"
"120436194231498","3","-1.1699517","-0.23619375","9.761662","sit down","1"
"120436214153425","3","-1.1555787","-0.25056663","9.74729","sit down","1"
"120436234106602","3","-1.1603698","-0.24098471","9.696984","sit down","1"
"120436254028477","3","-1.1579742","-0.21942547","9.680216","sit down","1"
"120436273911446","3","-1.1963019","-0.21942547","9.593979","sit down","1"
"120436293833321","3","-1.2130703","-0.20265707","9.601165","sit down","1"
"120436313772227","3","-1.1771381","-0.20265707","9.749685","sit down","1"
"120436333694154","3","-1.1603698","-0.212239","9.713753","sit down","1"
"120436353619206","3","-1.1651607","-0.19307515","9.680216","sit down","1"
"120436373541133","3","-1.2034883","-0.1906797","9.797595","sit down","1"
"120436393435665","3","-1.2178612","-0.21463445","9.82634","sit down","1"
"120436413357592","3","-1.2130703","-0.22182086","9.790408","sit down","1"
"120436433282644","3","-1.2082794","-0.21463445","9.742498","sit down","1"
"120436453204571","3","-1.2034883","-0.22661188","9.713753","sit down","1"
"120436473132383","3","-1.1795335","-0.23379824","9.680216","sit down","1"
"120436493054311","3","-1.1843245","-0.20026156","9.646679","sit down","1"
"120436512966811","3","-1.1747426","-0.19547066","9.7089615","sit down","1"
"120436532888738","3","-1.1483923","-0.1906797","9.730521","sit down","1"
"120436552810456","3","-1.1483923","-0.22421637","9.6562605","sit down","1"
"120436572741550","3","-1.1531833","-0.21463445","9.646679","sit down","1"
"120436592668633","3","-1.1747426","-0.20505258","9.728126","sit down","1"
"120436612590561","3","-1.1699517","-0.21942547","9.737708","sit down","1"
"120436632527956","3","-1.1795335","-0.19307515","9.687403","sit down","1"
"120436652449883","3","-1.1963019","-0.212239","9.649075","sit down","1"
"120436672343269","3","-1.1843245","-0.23858926","9.665843","sit down","1"
"120436692265196","3","-1.18672","-0.23140284","9.744894","sit down","1"
"120436712179206","3","-1.1843245","-0.22182086","9.713753","sit down","1"
"120436732101081","3","-1.1939064","-0.21942547","9.711357","sit down","1"
"120436752039779","3","-1.1986973","-0.21702996","9.67303","sit down","1"
"120436771961706","3","-1.2034883","-0.20744804","9.744894","sit down","1"
"120436791845196","3","-1.1915109","-0.23619375","9.768848","sit down","1"
"120436811767123","3","-1.1747426","-0.24098471","9.7353115","sit down","1"
"120436831698008","3","-1.1843245","-0.23379824","9.756871","sit down","1"
"120436851619936","3","-1.2010928","-0.22900733","9.749685","sit down","1"
"120436871547331","3","-1.2250476","-0.22421637","9.706566","sit down","1"
"120436891469206","3","-1.2298386","-0.20744804","9.701775","sit down","1"
"120436911378269","3","-1.2034883","-0.18588868","9.69938","sit down","1"
"120436931300144","3","-1.1986973","-0.19786611","9.685007","sit down","1"
"120436951232227","3","-1.1915109","-0.20505258","9.694589","sit down","1"
"120436971154102","3","-1.1963019","-0.1906797","9.701775","sit down","1"
"120436991073633","3","-1.2010928","-0.17870227","9.718544","sit down","1"
"120437010995508","3","-1.1963019","-0.20744804","9.718544","sit down","1"
"120437030911654","3","-1.18672","-0.22900733","9.692194","sit down","1"
"120437050833529","3","-1.1651607","-0.21702996","9.69938","sit down","1"
"120437070730456","3","-1.1388104","-0.22900733","9.701775","sit down","1"
"120437090652383","3","-1.1675562","-0.21463445","9.661052","lay down","1"
"120437110580248","3","-1.1723471","-0.21463445","9.682611","lay down","1"
"120437130502123","3","-1.1699517","-0.19786611","9.723335","lay down","1"
"120437150429883","3","-1.1819291","-0.19307515","9.706566","lay down","1"
"120437170351811","3","-1.1771381","-0.20984349","9.685007","lay down","1"
"120437190260977","3","-1.1915109","-0.212239","9.742498","lay down","1"
"120437210182904","3","-1.1843245","-0.20026156","9.754476","lay down","1"
"120437230139467","3","-1.1843245","-0.20984349","9.7089615","lay down","1"
"120437250061394","3","-1.2106748","-0.20984349","9.718544","lay down","1"
"120437269948894","3","-1.2010928","-0.20984349","9.732917","lay down","1"
"120437289870821","3","-1.2082794","-0.21463445","9.728126","lay down","1"
"120437309797488","3","-1.1986973","-0.212239","9.72573","lay down","1"
"120437329719363","3","-1.1843245","-0.22421637","9.720939","lay down","1"
"120437349606758","3","-1.1986973","-0.23858926","9.720939","lay down","1"
"120437369528686","3","-1.2106748","-0.19547066","9.718544","lay down","1"
"120437389480717","3","-1.18672","-0.19786611","9.72573","lay down","1"
"120437409402592","3","-1.1436014","-0.212239","9.682611","lay down","1"
"120437429309675","3","-1.1436014","-0.22421637","9.680216","lay down","1"
"120437449231550","3","-1.1819291","-0.23619375","9.689797","lay down","1"
"120437469144467","3","-1.2010928","-0.262544","9.677821","lay down","1"
"120437489066290","3","-1.2178612","-0.24577567","9.685007","lay down","1"
"120437508983321","3","-1.2178612","-0.22900733","9.718544","lay down","1"
"120437528905196","3","-1.1939064","-0.23140284","9.756871","lay down","1"
"120437548819363","3","-1.1795335","-0.21463445","9.749685","lay down","1"
"120437568741290","3","-1.1986973","-0.20026156","9.661052","lay down","1"
"120437588626498","3","-1.1819291","-0.20026156","9.675425","lay down","1"
"120437608548425","3","-1.2010928","-0.19786611","9.720939","lay down","1"
"120437628465561","3","-1.1986973","-0.22900733","9.704171","lay down","1"
"120437648386915","3","-1.1747426","-0.23858926","9.732917","lay down","1"
"120437668329623","3","-1.136415","-0.20984349","9.802386","lay down","1"
"120437688250977","3","-1.1771381","-0.20505258","9.591583","lay down","1"
"120437708166238","3","-1.1939064","-0.26733503","9.728126","lay down","1"
"120437728087592","3","-1.1651607","-0.2793124","9.972464","lay down","1"
"120437747996654","3","-1.2346295","-0.2769169","9.814363","lay down","1"
"120437767917956","3","-1.2442114","-0.2553576","9.680216","lay down","1"
"120437787826654","3","-1.1771381","-0.28889433","9.488578","lay down","1"
"120437807748008","3","-1.1771381","-0.26493952","9.481391","lay down","1"
"120437827677436","3","-1.1771381","-0.16432944","9.816758","lay down","1"
"120437847598842","3","-1.1891155","-0.06132382","9.864668","lay down","1"
"120437867480925","3","-1.2394205","-0.025391668","9.675425","lay down","1"
"120437887402279","3","-1.2178612","-0.03257811","9.565233","lay down","1"
"120437907318946","3","-1.2082794","-0.18588868","9.593979","lay down","1"
"120437927240300","3","-1.1292286","-0.21702996","9.749685","lay down","1"
"120437947156029","3","-1.076528","-0.17151585","9.723335","lay down","1"
"120437967077383","3","-1.0932963","-0.19547066","9.886227","lay down","1"
"120437986989727","3","-1.1412059","-0.18588868","9.97486","lay down","1"
"120438006911029","3","-1.1843245","-0.25775304","9.754476","lay down","1"
"120438026831342","3","-1.1843245","-0.212239","9.440668","lay down","1"
"120438046752644","3","-1.1699517","-0.15714297","9.682611","lay down","1"
"120438066667956","3","-1.1627653","-0.18109778","9.816758","lay down","1"
"120438086589363","3","-1.1963019","-0.14756107","9.675425","lay down","1"
"120438106512279","3","-1.136415","-0.097256005","9.649075","lay down","1"
"120438126433686","3","-1.131624","-0.11881533","9.776035","lay down","1"
"120438146383894","3","-1.1627653","-0.097256005","9.62512","lay down","1"
"120438166269988","3","-1.1651607","-0.10204697","9.632307","lay down","1"
"120438186191290","3","-1.2897255","-0.14756107","9.586792","lay down","1"
"120438206148217","3","-1.3951266","-0.17870227","9.443064","lay down","1"
"120438226069519","3","-1.306494","-0.10923341","9.639493","lay down","1"
"120438245905821","3","-1.126833","-0.006227821","9.677821","lay down","1"
"120438265827175","3","-1.1148556","0.027308851","9.605956","lay down","1"
"120438285793894","3","-1.337635","-0.16193393","9.455041","lay down","1"
"120438305715248","3","-1.292121","-0.25296214","9.644284","lay down","1"
"120438325632383","3","-1.3879402","-0.22182086","9.780826","lay down","1"
"120438345553686","3","-1.3927312","-0.24817112","9.696984","lay down","1"
"120438365473269","3","-1.3735673","-0.18349329","9.759267","lay down","1"
"120438385394571","3","-1.2897255","-0.13797912","9.77364","lay down","1"
"120438405313008","3","-1.3615899","-0.21463445","9.955696","lay down","1"
"120438425234415","3","-1.4406407","-0.30326715","10.056306","lay down","1"
"120438445178321","3","-1.4837593","-0.32961747","9.967674","lay down","1"
"120438465099675","3","-1.5915558","-0.41585466","9.843109","lay down","1"
"120438484995456","3","-1.5388553","-0.3918999","9.97486","lay down","1"
"120438504916863","3","-1.5029233","-0.322431","9.986836","lay down","1"
"120438524837904","3","-1.3735673","-0.26973042","9.77364","lay down","1"
"120438544759311","3","-1.3112848","-0.20744804","9.653866","lay down","1"
"120438564693321","3","-1.246607","-0.11402434","9.500555","lay down","1"
"120438584614623","3","-1.3759627","-0.1739113","9.347245","lay down","1"
"120438604517748","3","-1.6179061","-0.3152446","9.467019","lay down","1"
"120438624439154","3","-1.6682112","-0.38231793","9.761662","lay down","1"
"120438644359467","3","-1.5987422","-0.3942953","9.677821","lay down","1"
"120438664280769","3","-1.4933412","-0.27212593","9.452646","lay down","1"
"120438684203686","3","-1.3735673","-0.20744804","9.431086","lay down","1"
"120438704125040","3","-1.337635","-0.2793124","9.534092","lay down","1"
"120438724059206","3","-1.1531833","-0.26733503","9.749685","lay down","1"
"120438743980613","3","-1.016641","-0.22421637","9.62512","lay down","1"
"120438763886654","3","-0.98310435","-0.039764553","9.534092","lay down","1"
"120438783807956","3","-0.8681213","-0.07809219","9.32329","lay down","1"
"120438803694050","3","-0.67887855","-0.14516556","9.143629","lay down","1"
"120438823615404","3","-0.65731925","-0.3008717","9.160397","lay down","1"
"120438843590613","3","-1.3112848","-0.43741396","9.12207","lay down","1"
"120438863511967","3","-2.1185613","-0.4086682","9.589188","lay down","1"
"120438883432592","3","-2.324572","-0.53562856","10.647989","lay down","1"
"120438903353946","3","-2.3700862","-0.9141141","10.844419","lay down","1"
"120438923270717","3","-2.5545382","-0.92130065","10.475514","lay down","1"
"120438943192071","3","-2.1568887","-0.39669082","9.62991","lay down","1"
"120438963091186","3","-1.8742224","0.4153764","9.172375","lay down","1"
"120438983012592","3","-1.9772278","0.8393761","9.780826","lay down","1"
"120439002956863","3","-2.2910357","0.32195273","10.2503395","lay down","1"
"120439022878217","3","-2.1520977","-0.43741396","9.608352","lay down","1"
"120439042775196","3","-1.6490474","-0.52125573","9.148419","lay down","1"
"120439062696498","3","-1.3208668","-0.52604675","9.22747","lay down","1"
"120439082614467","3","-1.2777481","-0.4278321","9.780826","lay down","1"
"120439102535821","3","-1.512505","-0.06132382","9.469414","lay down","1"
"120439122458686","3","-1.852663","-0.044555485","9.256216","lay down","1"
"120439142380092","3","-1.9556686","-0.13797912","9.653866","lay down","1"
"120439162296706","3","-1.9005727","-0.23858926","9.917368","lay down","1"
"120439182218008","3","-1.8957816","-0.26493952","9.574815","lay down","1"
"120439202150508","3","-1.8478721","-0.212239","9.335267","lay down","1"
"120439222071706","3","-1.7257028","-0.14995655","9.634702","lay down","1"
"120439241994779","3","-1.6394655","9.586215E-4","9.862272","lay down","1"
"120439261915977","3","-1.7113298","-0.09006956","9.502951","lay down","1"
"120439281863321","3","-1.8646404","-0.36315414","9.28017","lay down","1"
"120439301784519","3","-2.132934","-0.44460037","9.28017","lay down","1"
"120439321703477","3","-2.017951","-0.7104986","9.644284","lay down","1"
"120439341624675","3","-1.7927761","-0.5164647","10.262317","lay down","1"
"120439361531290","3","-1.7784032","-0.33680388","9.94851","lay down","1"
"120439381452540","3","-1.9939963","-0.35596767","9.644284","lay down","1"
"120439401373113","3","-2.18803","-0.35596767","9.984442","lay down","1"
"120439421294311","3","-2.2958264","-0.33440837","10.142543","lay down","1"
"120439441189415","3","-2.348527","-0.36794505","9.649075","lay down","1"
"120439461110717","3","-2.4467416","-0.14756107","9.74729","lay down","1"
"120439481036602","3","-2.3197813","0.008145064","9.922159","lay down","1"
"120439500957852","3","-2.3030128","-0.08527863","9.553256","lay down","1"
"120439520880508","3","-1.9029682","-0.18349329","9.244239","lay down","1"
"120439540801706","3","-1.3663809","-0.18349329","9.22747","lay down","1"
"120439560714311","3","-1.1412059","-0.11162889","9.203516","lay down","1"
"120439580635508","3","-1.1531833","-0.13558367","9.320894","lay down","1"
"120439600551394","3","-1.4550136","-0.20505258","9.421504","lay down","1"
"120439620472644","3","-1.6538383","-0.2841033","9.589188","lay down","1"
"120439640393738","3","-1.5819739","-0.35117677","9.7089615","lay down","1"
"120439660314936","3","-1.5460417","-0.38471344","9.776035","lay down","1"
"120439680236290","3","-1.6250925","-0.3439903","9.627516","lay down","1"
"120439700157488","3","-1.6490474","-0.2864988","9.560442","lay down","1"
"120439720072852","3","-1.6658156","-0.2769169","9.728126","lay down","1"
"120439739994102","3","-1.7233071","-0.2769169","9.701775","lay down","1"
"120439759906498","3","-1.7017479","-0.2841033","9.742498","lay down","1"
"120439779827748","3","-1.7376801","-0.29128978","9.795198","lay down","1"
"120439799741238","3","-1.7784032","-0.2936853","9.718544","lay down","1"
"120439819662488","3","-1.7592393","-0.27452144","9.637098","lay down","1"
"120439839580613","3","-1.7400756","-0.23140284","9.601165","lay down","1"
"120439859501811","3","-1.6753976","-0.23140284","9.567629","lay down","1"
"120439879424415","3","-1.6203016","-0.24098471","9.615538","lay down","1"
"120439899345665","3","-1.5915558","-0.23619375","9.632307","lay down","1"
"120439919259519","3","-1.6131152","-0.23379824","9.596374","lay down","1"
"120439939180717","3","-1.577183","-0.23140284","9.591583","lay down","1"
"120439959122540","3","-1.5316689","-0.212239","9.589188","lay down","1"
"120439979043790","3","-1.5005276","-0.23140284","9.519719","lay down","1"
"120439998933373","3","-1.5580192","-0.26014856","9.584397","lay down","1"
"120440018854675","3","-1.6035333","-0.24577567","9.649075","lay down","1"
"120440038775769","3","-1.6873751","-0.262544","9.627516","lay down","1"
"120440058696967","3","-1.7089343","-0.2793124","9.663447","lay down","1"
"120440078603269","3","-1.7328892","-0.2984762","9.718544","lay down","1"
"120440098524519","3","-1.7328892","-0.2984762","9.761662","lay down","1"
"120440118471811","3","-1.7352846","-0.29128978","9.795198","lay down","1"
"120440138393008","3","-1.7233071","-0.3008717","9.778431","lay down","1"
"120440158309831","3","-1.6993524","-0.29608074","9.764058","lay down","1"
"120440178231081","3","-1.6945615","-0.2817079","9.72573","lay down","1"
"120440198157123","3","-1.6562338","-0.2817079","9.668239","lay down","1"
"120440218078321","3","-1.6298835","-0.26733503","9.608352","lay down","1"
"120440237984883","3","-1.641861","-0.2769169","9.582001","lay down","1"
"120440257905821","3","-1.6346745","-0.26014856","9.62512","lay down","1"
"120440277789883","3","-1.6203016","-0.26014856","9.605956","lay down","1"
"120440297710873","3","-1.6394655","-0.25296214","9.57242","lay down","1"
"120440317664727","3","-1.6586292","-0.24098471","9.59877","lay down","1"
"120440337585665","3","-1.6610248","-0.25775304","9.634702","lay down","1"
"120440357493477","3","-1.6658156","-0.2817079","9.675425","lay down","1"
"120440377414415","3","-1.692166","-0.28889433","9.689797","lay down","1"
"120440397321550","3","-1.6945615","-0.27452144","9.675425","lay down","1"
"120440417242488","3","-1.7113298","-0.2769169","9.696984","lay down","1"
"120440437164675","3","-1.7257028","-0.29128978","9.701775","lay down","1"
"120440457085613","3","-1.7089343","-0.2769169","9.680216","lay down","1"
"120440477000248","3","-1.6873751","-0.26733503","9.661052","lay down","1"
"120440496921186","3","-1.6730021","-0.26733503","9.653866","lay down","1"
"120440516838061","3","-1.6562338","-0.26733503","9.639493","lay down","1"
"120440536758998","3","-1.6442564","-0.27212593","9.605956","lay down","1"
"120440556669154","3","-1.6346745","-0.27452144","9.634702","lay down","1"
"120440576590092","3","-1.6274881","-0.27452144","9.620329","lay down","1"
"120440596538842","3","-1.6514428","-0.26493952","9.610746","lay down","1"
"120440616459779","3","-1.6730021","-0.25775304","9.658657","lay down","1"
"120440636361238","3","-1.692166","-0.25775304","9.622725","lay down","1"
"120440656282175","3","-1.6801885","-0.27452144","9.653866","lay down","1"
"120440676207019","3","-1.682584","-0.27452144","9.680216","lay down","1"
"120440696127956","3","-1.6993524","-0.2841033","9.687403","lay down","1"
"120440716018842","3","-1.7161207","-0.2841033","9.67303","lay down","1"
"120440735939779","3","-1.6945615","-0.2936853","9.682611","lay down","1"
"120440755874415","3","-1.677793","-0.2841033","9.675425","lay down","1"
"120440775795352","3","-1.6801885","-0.26014856","9.649075","lay down","1"
"120440795705821","3","-1.692166","-0.26493952","9.646679","lay down","1"
"120440815626758","3","-1.6801885","-0.27212593","9.634702","lay down","1"
"120440835548529","3","-1.6634202","-0.27212593","9.617934","lay down","1"
"120440855469467","3","-1.6538383","-0.26733503","9.646679","lay down","1"
"120440875391342","3","-1.6706066","-0.2769169","9.658657","lay down","1"
"120440895312279","3","-1.6682112","-0.27452144","9.62512","lay down","1"
"120440915202592","3","-1.682584","-0.26733503","9.620329","lay down","1"
"120440935123529","3","-1.6730021","-0.27212593","9.646679","lay down","1"
"120440955049363","3","-1.6897705","-0.2864988","9.6562605","lay down","1"
"120440974970300","3","-1.7017479","-0.2793124","9.7089615","lay down","1"
"120440994900144","3","-1.692166","-0.2817079","9.665843","lay down","1"
"120441014821081","3","-1.6801885","-0.2864988","9.665843","lay down","1"
"120441034726081","3","-1.6849796","-0.26733503","9.675425","lay down","1"
"120441054665508","3","-1.6730021","-0.26973042","9.661052","lay down","1"
"120441074578894","3","-1.6801885","-0.26973042","9.637098","roll side","1"
"120441094499831","3","-1.682584","-0.26733503","9.646679","roll side","1"
"120441114387436","3","-1.6658156","-0.262544","9.663447","roll side","1"
"120441134308373","3","-1.677793","-0.262544","9.663447","roll side","1"
"120441154223738","3","-1.6969569","-0.26493952","9.634702","roll side","1"
"120441174144675","3","-1.6849796","-0.2793124","9.62512","roll side","1"
"120441194059675","3","-1.6682112","-0.2864988","9.634702","roll side","1"
"120441213980613","3","-1.6634202","-0.26973042","9.65147","roll side","1"
"120441233898686","3","-1.6873751","-0.26733503","9.663447","roll side","1"
"120441253819675","3","-1.6969569","-0.26733503","9.639493","roll side","1"
"120441273734988","3","-1.7233071","-0.2769169","9.670634","roll side","1"
"120441293655925","3","-1.6873751","-0.2769169","9.680216","roll side","1"
"120441313570508","3","-1.6849796","-0.2817079","9.646679","roll side","1"
"120441333491446","3","-1.6730021","-0.28889433","9.6562605","roll side","1"
"120441353428842","3","-1.6753976","-0.2817079","9.665843","roll side","1"
"120441373349779","3","-1.6658156","-0.27212593","9.627516","roll side","1"
"120441393235300","3","-1.6706066","-0.26493952","9.639493","roll side","1"
"120441413156238","3","-1.6730021","-0.26014856","9.637098","roll side","1"
"120441433072175","3","-1.6466519","-0.27212593","9.65147","roll side","1"
"120441452993113","3","-1.6514428","-0.2841033","9.610746","roll side","1"
"120441472867644","3","-1.6753976","-0.262544","9.644284","roll side","1"
"120441492788581","3","-1.6753976","-0.22421637","9.584397","roll side","1"
"120441512772852","3","-1.6490474","-0.25296214","9.586792","roll side","1"
"120441532693842","3","-1.682584","-0.30326715","9.62512","roll side","1"
"120441552601915","3","-1.6849796","-0.3200355","9.637098","roll side","1"
"120441572522852","3","-1.6298835","-0.31284907","9.670634","roll side","1"
"120441592446967","3","-1.5891604","-0.29128978","9.632307","roll side","1"
"120441612367904","3","-1.5628102","-0.2553576","9.534092","roll side","1"
"120441632290665","3","-1.567601","-0.2553576","9.538883","roll side","1"
"120441652211602","3","-1.6226971","-0.25056663","9.531696","roll side","1"
"120441672094258","3","-1.6945615","-0.31284907","9.546069","roll side","1"
"120441692015248","3","-1.797567","-0.27212593","9.546069","roll side","1"
"120441711960665","3","-1.8382901","-0.26733503","9.608352","roll side","1"
"120441731881602","3","-1.7280982","-0.2817079","9.7353115","roll side","1"
"120441751808738","3","-1.6203016","-0.13318819","9.462228","roll side","1"
"120441771729675","3","-1.6394655","-0.12600175","9.10051","roll side","1"
"120441791627592","3","-1.8143353","-0.22900733","9.265798","roll side","1"
"120441811548529","3","-2.1712618","-0.35117677","9.459832","roll side","1"
"120441831481758","3","-2.4060187","-0.432623","9.548465","roll side","1"
"120441851373373","3","-2.3437362","-0.3895044","9.840713","roll side","1"
"120441871294311","3","-2.3054085","-0.46615967","9.881435","roll side","1"
"120441891202383","3","-2.2646854","-0.56676984","9.493369","roll side","1"
"120441911123373","3","-2.3629","-0.5092783","9.486182","roll side","1"
"120441931047488","3","-2.4491372","-0.49730095","9.943719","roll side","1"
"120441950968425","3","-2.4683008","-0.602702","10.27669","roll side","1"
"120441970890665","3","-2.2910357","-0.58114266","9.811967","roll side","1"
"120441990811602","3","-2.247917","-0.5931201","9.265798","roll side","1"
"120442010750873","3","-2.4371598","-0.5931201","9.833527","roll side","1"
"120442030671811","3","-2.4802785","-0.5571879","10.489888","roll side","1"
"120442050570821","3","-2.1904254","-0.54281497","9.5436735","roll side","1"
"120442070491758","3","-2.1113749","-0.5020919","8.940013","roll side","1"
"120442090399936","3","-2.1065836","-0.37992254","9.5173235","roll side","1"
"120442110320873","3","-1.9005727","-0.3942953","10.008397","roll side","1"
"120442130283321","3","-1.7448665","-0.46855518","9.562838","roll side","1"
"120442150204258","3","-1.8670359","-0.48532352","9.04781","roll side","1"
"120442170095300","3","-2.4491372","-0.5955156","9.361617","roll side","1"
"120442190016238","3","-2.5976567","-0.44220492","9.79999","roll side","1"
"120442209930977","3","-2.3629","-0.25775304","9.330476","roll side","1"
"120442229851967","3","-2.4850693","-0.3080581","8.7579565","roll side","1"
"120442249769154","3","-2.2311487","-0.34878126","9.344849","roll side","1"
"120442269690092","3","-2.0371149","-0.34878126","9.474205","roll side","1"
"120442289606081","3","-2.252708","-0.3942953","9.114882","roll side","1"
"120442309527019","3","-2.3269677","-0.38471344","9.502951","roll side","1"
"120442329448113","3","-2.2838492","-0.4302275","9.60356","roll side","1"
"120442349369050","3","-2.2646854","-0.6266568","9.431086","roll side","1"
"120442369283269","3","-2.3101993","-0.49011448","9.685007","roll side","1"
"120442389204206","3","-2.26229","-0.27452144","9.6562605","roll side","1"
"120442409152175","3","-2.5210013","-0.44220492","9.845504","roll side","1"
"120442429073113","3","-2.73899","-0.53323317","10.3629265","roll side","1"
"120442448961654","3","-2.8324137","-0.432623","10.291063","roll side","1"
"120442468882592","3","-3.0887299","-0.46855518","10.106611","roll side","1"
"120442488839102","3","-2.8611593","-0.49490544","10.039537","roll side","1"
"120442508760040","3","-2.6599393","-0.53562856","9.428691","roll side","1"
"120442528648790","3","-2.4371598","-0.4254366","9.378386","roll side","1"
"120442548569727","3","-2.0107646","-0.2793124","9.39755","roll side","1"
"120442568484102","3","-1.8909907","-0.38231793","9.078951","roll side","1"
"120442588405040","3","-1.6993524","-0.16672489","9.196329","roll side","1"
"120442608356863","3","-1.7161207","-0.13558367","9.313708","roll side","1"
"120442628277800","3","-1.8598495","-0.2769169","9.4239","roll side","1"
"120442648141081","3","-1.8382901","-0.13797912","9.428691","roll side","1"
"120442668062019","3","-1.8095443","0.027308851","9.478996","roll side","1"
"120442687990300","3","-1.6610248","-0.24098471","9.529301","roll side","1"
"120442707911238","3","-1.5915558","-0.49490544","9.5436735","roll side","1"
"120442727799936","3","-2.0730472","-0.33201286","9.29694","roll side","1"
"120442747720925","3","-2.5114198","-0.20984349","9.169979","roll side","1"
"120442767659988","3","-2.0419059","-0.14516556","9.37599","roll side","1"
"120442787580925","3","-1.9412957","-0.046950966","9.3855715","roll side","1"
"120442807496498","3","-2.027533","0.017726958","9.1939335","roll side","1"
"120442827417436","3","-1.8933861","-0.099651486","8.990318","roll side","1"
"120442847326238","3","-1.8718269","-0.2864988","8.9472","roll side","1"
"120442867247227","3","-1.8790132","-0.22182086","9.054996","roll side","1"
"120442887157279","3","-2.2143803","-0.2984762","9.054996","roll side","1"
"120442907077852","3","-2.7150352","-0.09006956","9.004691","roll side","1"
"120442927017488","3","-3.5845938","0.6142011","9.076556","roll side","1"
"120442946938061","3","-3.800187","0.4489131","10.231175","roll side","1"
"120442966853633","3","-3.4336786","0.33153465","11.706791","roll side","1"
"120442986774206","3","-3.3043232","0.3794442","10.513843","roll side","1"
"120443006680769","3","-3.275577","0.19259688","9.2466345","roll side","1"
"120443026601342","3","-3.1126847","0.08480036","9.780826","roll side","1"
"120443046527071","3","-3.179758","-0.022996157","9.962883","roll side","1"
"120443066447644","3","-3.1174755","-0.06611478","9.567629","roll side","1"
"120443086368321","3","-2.8563685","-0.020600706","9.24903","roll side","1"
"120443106288894","3","-2.770131","0.020122439","9.241844","roll side","1"
"120443126214988","3","-2.7174306","0.032099843","9.318499","roll side","1"
"120443146135508","3","-2.7006624","0.020122439","9.213098","roll side","1"
"120443166054936","3","-2.688685","0.029704332","9.093324","roll side","1"
"120443185975508","3","-2.628798","0.027308851","9.059787","roll side","1"
"120443205884519","3","-2.66473","0.044077218","9.050205","roll side","1"
"120443225805092","3","-2.693476","0.039286286","9.330476","roll side","1"
"120443245732540","3","-2.7006624","0.020122439","9.435877","roll side","1"
"120443265653113","3","-2.7485719","0.07282296","9.395154","roll side","1"
"120443285562071","3","-2.7126398","0.065636516","9.498159","roll side","1"
"120443305482644","3","-2.578493","0.0057495534","9.455041","roll side","1"
"120443325406446","3","-2.46351","-0.11402434","9.210702","roll side","1"
"120443345327019","3","-2.5904703","-0.14995655","9.1939335","roll side","1"
"120443365219675","3","-2.81325","0.029704332","9.419108","roll side","1"
"120443385140248","3","-3.0575886","0.044077218","9.692194","roll side","1"
"120443405055561","3","-2.9569788","0.22852907","9.526905","roll side","1"
"120443424976081","3","-2.830018","0.46328595","9.510137","roll side","1"
"120443444912540","3","-3.074357","0.26446125","9.802386","roll side","1"
"120443464833113","3","-3.1366396","0.044077218","9.610746","roll side","1"
"120443484732644","3","-3.0408206","0.091986775","9.284962","roll side","1"
"120443504653217","3","-2.8659506","0.10875514","9.455041","roll side","1"
"120443524600613","3","-2.7749224","0.089591295","9.452646","roll side","1"
"120443544521186","3","-2.7174306","0.07521844","9.3520355","roll side","1"
"120443564394467","3","-2.674312","0.101568714","9.304126","roll side","1"
"120443584315040","3","-2.6599393","0.07282296","9.213098","roll side","1"
"120443604267331","3","-2.688685","0.015331477","9.34964","roll side","1"
"120443624187904","3","-2.73899","0.063241065","9.356827","roll side","1"
"120443644120144","3","-2.7773175","0.11833705","9.292149","roll side","1"
"120443664040717","3","-2.8324137","0.1255235","9.409527","roll side","1"
"120443683929415","3","-2.8923006","0.12312801","9.457437","roll side","1"
"120443703849936","3","-2.8923006","0.1351054","9.462228","roll side","1"
"120443723769206","3","-2.8827186","0.13031444","9.502951","roll side","1"
"120443743689779","3","-2.8970919","0.13031444","9.486182","roll side","1"
"120443763641446","3","-2.899487","0.11594157","9.474205","roll side","1"
"120443783562019","3","-2.8851142","0.10635966","9.431086","roll side","1"
"120443803450925","3","-2.8396","0.1135461","9.452646","roll side","1"
"120443823371498","3","-2.794086","0.089591295","9.407132","roll side","1"
"120443843302175","3","-2.7868996","0.094382286","9.34964","roll side","1"
"120443863222748","3","-2.7916908","0.101568714","9.340057","roll side","1"
"120443883152696","3","-2.8204365","0.091986775","9.378386","roll side","1"
"120443903073269","3","-2.8467865","0.1135461","9.404736","roll side","1"
"120443922971446","3","-2.8515773","0.1135461","9.399945","roll side","1"
"120443942891758","3","-2.827623","0.11833705","9.402341","roll side","1"
"120443962813425","3","-2.81325","0.11594157","9.426295","roll side","1"
"120443982733738","3","-2.8252273","0.11115062","9.402341","roll side","1"
"120444002676706","3","-2.8252273","0.13031444","9.399945","roll side","1"
"120444022597019","3","-2.8396","0.13750088","9.431086","roll side","1"
"120444042510821","3","-2.8563685","0.1135461","9.419108","roll side","1"
"120444062431133","3","-2.853973","0.10396418","9.435877","roll side","1"
"120444082326811","3","-2.8228316","0.11115062","9.433482","roll side","1"
"120444102247123","3","-2.8396","0.11594157","9.3855715","roll side","1"
"120444122190092","3","-2.8443913","0.1135461","9.399945","roll side","1"
"120444142110404","3","-2.8252273","0.11833705","9.402341","roll side","1"
"120444162035144","3","-2.8204365","0.11115062","9.383177","roll side","1"
"120444181955456","3","-2.8419957","0.12791896","9.383177","roll side","1"
"120444201861811","3","-2.837205","0.1351054","9.404736","roll side","1"
"120444221782123","3","-2.8348093","0.11833705","9.416713","roll side","1"
"120444241697071","3","-2.8515773","0.1351054","9.39755","roll side","1"
"120444261617383","3","-2.8467865","0.13270992","9.39755","roll side","1"
"120444281548477","3","-2.8587642","0.12312801","9.387968","roll side","1"
"120444301468790","3","-2.8491821","0.1255235","9.4239","roll side","1"
"120444321388061","3","-2.8515773","0.11115062","9.428691","roll side","1"
"120444341308373","3","-2.853973","0.12312801","9.395154","roll side","1"
"120444361228113","3","-2.8491821","0.1135461","9.414318","roll side","1"
"120444381148425","3","-2.8467865","0.11115062","9.407132","roll side","1"
"120444401038529","3","-2.8443913","0.11833705","9.39755","roll side","1"
"120444420958842","3","-2.8515773","0.12312801","9.387968","roll side","1"
"120444440917852","3","-2.8443913","0.12073253","9.359221","roll side","1"
"120444460838165","3","-2.8611593","0.1351054","9.387968","roll side","1"
"120444480726915","3","-2.8587642","0.12791896","9.37599","roll side","1"
"120444500647227","3","-2.8324137","0.1255235","9.392759","roll side","1"
"120444520589727","3","-2.853973","0.1255235","9.411922","roll side","1"
"120444540510040","3","-2.8779278","0.12312801","9.419108","roll side","1"
"120444560432436","3","-2.8779278","0.12312801","9.392759","roll side","1"
"120444580352748","3","-2.8779278","0.12312801","9.39755","roll side","1"
"120444600241654","3","-2.8707414","0.12791896","9.404736","roll side","1"
"120444620161967","3","-2.8707414","0.1255235","9.39755","roll side","1"
"120444640116394","3","-2.8755322","0.10635966","9.3855715","roll side","1"
"120444660036706","3","-2.8827186","0.11833705","9.4239","roll side","1"
"120444679943686","3","-2.8683462","0.11594157","9.421504","roll side","1"
"120444699852488","3","-2.8659506","0.1255235","9.390363","roll side","1"
"120444719772800","3","-2.863555","0.13270992","9.395154","roll side","1"
"120444739689102","3","-2.873137","0.1255235","9.390363","roll side","1"
"120444759609415","3","-2.873137","0.13270992","9.378386","roll side","1"
"120444779523842","3","-2.8779278","0.14229183","9.39755","roll side","1"
"120444799444154","3","-2.8851142","0.1590602","9.402341","roll side","1"
"120444819359936","3","-2.8803234","0.14468732","9.407132","roll side","1"
"120444839280300","3","-2.8779278","0.11594157","9.37599","roll side","1"
"120444859227227","3","-2.8755322","0.12312801","9.402341","roll side","1"
"120444879147540","3","-2.8946962","0.12073253","9.399945","roll side","1"
"120444899062592","3","-2.9018826","0.12791896","9.378386","roll side","1"
"120444918982904","3","-2.935419","0.1351054","9.402341","roll side","1"
"120444938926654","3","-2.9378147","0.1351054","9.395154","roll side","1"
"120444958846967","3","-2.909069","0.14229183","9.404736","roll side","1"
"120444978746446","3","-2.8827186","0.14229183","9.404736","roll side","1"
"120444998666758","3","-2.8515773","0.16145566","9.404736","roll side","1"
"120445018586394","3","-2.8587642","0.1590602","9.402341","roll side","1"
"120445038506706","3","-2.8803234","0.13750088","9.368804","roll side","1"
"120445058441758","3","-2.8611593","0.13270992","9.378386","roll side","1"
"120445078362071","3","-2.8755322","0.1135461","9.409527","roll back","1"
"120445098264727","3","-2.8923006","0.11833705","9.395154","roll back","1"
"120445118185040","3","-2.9114647","0.1351054","9.3520355","roll back","1"
"120445138118998","3","-2.9042778","0.13270992","9.380781","roll back","1"
"120445158039311","3","-2.8827186","0.12791896","9.37599","roll back","1"
"120445177961238","3","-2.8827186","0.12073253","9.364013","roll back","1"
"120445197881550","3","-2.8970919","0.12073253","9.402341","roll back","1"
"120445217791133","3","-2.899487","0.13270992","9.419108","roll back","1"
"120445237711446","3","-2.8875098","0.15426922","9.3855715","roll back","1"
"120445257631446","3","-2.8923006","0.13270992","9.390363","roll back","1"
"120445277551758","3","-2.9018826","0.1255235","9.409527","roll back","1"
"120445297466290","3","-2.9114647","0.11833705","9.37599","roll back","1"
"120445317386602","3","-2.9114647","0.1255235","9.34964","roll back","1"
"120445337309988","3","-2.9066734","0.13989636","9.407132","roll back","1"
"120445357230300","3","-2.8923006","0.13750088","9.414318","roll back","1"
"120445377162071","3","-2.899487","0.13989636","9.373595","roll back","1"
"120445397082383","3","-2.899487","0.13989636","9.380781","roll back","1"
"120445417021811","3","-2.8803234","0.1470828","9.421504","roll back","1"
"120445436942123","3","-2.8611593","0.1470828","9.409527","roll back","1"
"120445456842540","3","-2.9402103","0.11115062","9.368804","roll back","1"
"120445476762852","3","-2.9881196","0.089591295","9.395154","roll back","1"
"120445496675821","3","-3.004888","0.09677774","9.512533","roll back","1"
"120445516596133","3","-3.0647755","0.11594157","9.500555","roll back","1"
"120445536518529","3","-3.0000973","0.1255235","9.443064","roll back","1"
"120445556438842","3","-2.9402103","0.101568714","9.380781","roll back","1"
"120445576375248","3","-2.9665604","0.14229183","9.455041","roll back","1"
"120445596295561","3","-2.8611593","0.21894714","9.687403","roll back","1"
"120445616192956","3","-2.7653403","0.19499236","9.505346","roll back","1"
"120445636113269","3","-2.693476","0.13989636","9.301731","roll back","1"
"120445656068686","3","-2.6838942","0.13750088","9.354431","roll back","1"
"120445675988998","3","-2.633589","0.13989636","9.493369","roll back","1"
"120445695894467","3","-2.5808885","0.1135461","9.426295","roll back","1"
"120445715814831","3","-2.6144252","0.089591295","9.2202835","roll back","1"
"120445735764102","3","-2.6024477","0.05126366","9.208307","roll back","1"
"120445755684467","3","-2.578493","0.056054622","9.330476","roll back","1"
"120445775572696","3","-2.5856795","0.10635966","9.337663","roll back","1"
"120445795493061","3","-2.7294083","0.10875514","9.292149","roll back","1"
"120445815412592","3","-2.8467865","0.05126366","9.4909725","roll back","1"
"120445835332956","3","-2.9258375","0.060845554","9.658657","roll back","1"
"120445855280092","3","-2.8946962","0.1135461","9.524509","roll back","1"
"120445875200456","3","-2.784504","0.12791896","9.431086","roll back","1"
"120445895128269","3","-2.7102444","0.09917322","9.4239","roll back","1"
"120445915048633","3","-2.7318037","0.015331477","9.498159","roll back","1"
"120445934936498","3","-2.7964816","0.0249134","9.4766","roll back","1"
"120445954856863","3","-2.8084588","0.015331477","9.529301","roll back","1"
"120445974789050","3","-2.7629447","-0.0301826","9.584397","roll back","1"
"120445994709467","3","-2.6862893","-0.051741928","9.567629","roll back","1"
"120446014626654","3","-2.6623347","-0.0301826","9.431086","roll back","1"
"120446034547071","3","-2.688685","-0.020600706","9.447855","roll back","1"
"120446054473946","3","-2.7030578","-0.042160004","9.574815","roll back","1"
"120446074394311","3","-2.5521426","-0.05653289","9.615538","roll back","1"
"120446094322956","3","-2.3629","-0.06611478","9.459832","roll back","1"
"120446114243321","3","-2.3365498","-0.03497356","9.29694","roll back","1"
"120446134155404","3","-2.348527","-0.06371933","9.505346","roll back","1"
"120446154075769","3","-2.3461316","-0.12600175","9.567629","roll back","1"
"120446174015769","3","-2.4922557","-0.097256005","9.421504","roll back","1"
"120446193936133","3","-2.6048431","-0.020600706","9.421504","roll back","1"
"120446213830040","3","-2.6311936","0.04886818","9.670634","roll back","1"
"120446233750404","3","-2.6311936","0.08240485","9.761662","roll back","1"
"120446253714831","3","-2.499442","0.056054622","9.632307","roll back","1"
"120446273635196","3","-2.3054085","-0.06611478","9.5173235","roll back","1"
"120446293521915","3","-2.173657","-0.14516556","9.507742","roll back","1"
"120446313442331","3","-2.0562787","-0.12839723","9.4909725","roll back","1"
"120446333368061","3","-1.9365047","-0.1307927","9.538883","roll back","1"
"120446353288425","3","-1.9436913","-0.18109778","9.591583","roll back","1"
"120446373214050","3","-2.008369","-0.17151585","9.589188","roll back","1"
"120446393134415","3","-2.0035782","-0.123606294","9.682611","roll back","1"
"120446413082175","3","-1.9939963","-0.05892834","9.761662","roll back","1"
"120446433002540","3","-2.0131602","-0.03257811","9.7089615","roll back","1"
"120446452894571","3","-1.9293183","-0.13797912","9.524509","roll back","1"
"120446472814988","3","-1.8191264","-0.20265707","9.570024","roll back","1"
"120446492740040","3","-1.8430811","-0.15714297","9.610746","roll back","1"
"120446512660404","3","-1.862245","-0.152352","9.435877","roll back","1"
"120446532610352","3","-1.7903806","9.586215E-4","9.469414","roll back","1"
"120446552530717","3","-1.7520529","0.0464727","9.601165","roll back","1"
"120446572424571","3","-1.6346745","-0.037369043","9.62991","roll back","1"
"120446592344988","3","-1.5149006","-0.14995655","9.682611","roll back","1"
"120446612300977","3","-1.4382453","-0.152352","9.665843","roll back","1"
"120446632221342","3","-1.4310589","-0.13318819","9.610746","roll back","1"
"120446652132800","3","-1.4310589","-0.16672489","9.562838","roll back","1"
"120446672053165","3","-1.407104","-0.14037463","9.330476","roll back","1"
"120446691957331","3","-1.4166859","-0.099651486","9.174769","roll back","1"
"120446711877696","3","-1.4885503","-0.18828419","9.435877","roll back","1"
"120446731803477","3","-1.5460417","-0.28889433","9.754476","roll back","1"
"120446751723894","3","-1.6131152","-0.42064562","9.919764","roll back","1"
"120446771658946","3","-1.5891604","-0.2769169","9.962883","roll back","1"
"120446791579467","3","-1.5556237","-0.10444245","9.819154","roll back","1"
"120446811490925","3","-1.6059287","-0.099651486","9.5173235","roll back","1"
"120446831411446","3","-1.6562338","-0.10204697","9.500555","roll back","1"
"120446851331706","3","-1.682584","-0.073301226","9.694589","roll back","1"
"120446871252227","3","-1.6538383","-0.06611478","9.744894","roll back","1"
"120446891179571","3","-1.6490474","-0.10923341","9.663447","roll back","1"
"120446911100092","3","-1.63707","-0.1307927","9.689797","roll back","1"
"120446931026342","3","-1.6203016","-0.16432944","9.7089615","roll back","1"
"120446950946863","3","-1.6298835","-0.20505258","9.706566","roll back","1"
"120446970850613","3","-1.6131152","-0.20265707","9.711357","roll back","1"
"120446990771133","3","-1.5843694","-0.20505258","9.701775","roll back","1"
"120447010732227","3","-1.5891604","-0.18828419","9.62512","roll back","1"
"120447030652748","3","-1.5963469","-0.17151585","9.59877","roll back","1"
"120447050571342","3","-1.5532281","-0.17870227","9.615538","roll back","1"
"120447070491863","3","-1.5747875","-0.18588868","9.605956","roll back","1"
"120447090404050","3","-1.577183","-0.1739113","9.65147","roll back","1"
"120447110324571","3","-1.6131152","-0.15714297","9.675425","roll back","1"
"120447130262592","3","-1.6586292","-0.1739113","9.670634","roll back","1"
"120447150183113","3","-1.6801885","-0.1739113","9.682611","roll back","1"
"120447170104623","3","-1.6849796","-0.152352","9.696984","roll back","1"
"120447190025144","3","-1.6969569","-0.14277011","9.7089615","roll back","1"
"120447209921081","3","-1.6873751","-0.13797912","9.692194","roll back","1"
"120447229841602","3","-1.6394655","-0.14995655","9.682611","roll back","1"
"120447249789988","3","-1.6346745","-0.15953842","9.665843","roll back","1"
"120447269710508","3","-1.6346745","-0.15714297","9.6562605","roll back","1"
"120447289605613","3","-1.6274881","-0.15474752","9.646679","roll back","1"
"120447309526133","3","-1.6203016","-0.16432944","9.60356","roll back","1"
"120447329415508","3","-1.6274881","-0.17151585","9.617934","roll back","1"
"120447349336029","3","-1.6083243","-0.15474752","9.62512","roll back","1"
"120447369321394","3","-1.6155107","-0.14995655","9.632307","roll back","1"
"120447389241915","3","-1.6322789","-0.14037463","9.649075","roll back","1"
"120447409147852","3","-1.6059287","-0.14277011","9.6562605","roll back","1"
"120447429068373","3","-1.6322789","-0.1691204","9.665843","roll back","1"
"120447448975821","3","-1.6346745","-0.1691204","9.694589","roll back","1"
"120447468896342","3","-1.6322789","-0.17870227","9.675425","roll back","1"
"120447488844675","3","-1.6322789","-0.18109778","9.67303","roll back","1"
"120447508765196","3","-1.6274881","-0.17870227","9.665843","roll back","1"
"120447528661758","3","-1.6274881","-0.16432944","9.675425","roll back","1"
"120447548582279","3","-1.6179061","-0.152352","9.677821","roll back","1"
"120447568504883","3","-1.6203016","-0.15953842","9.649075","roll back","1"
"120447588425404","3","-1.6226971","-0.14995655","9.665843","roll back","1"
"120447608338842","3","-1.6250925","-0.16672489","9.67303","roll back","1"
"120447628259363","3","-1.6226971","-0.16672489","9.62991","roll back","1"
"120447648210717","3","-1.6155107","-0.152352","9.665843","roll back","1"
"120447668131238","3","-1.6155107","-0.15714297","9.661052","roll back","1"
"120447688040769","3","-1.6346745","-0.15474752","9.6562605","roll back","1"
"120447707961290","3","-1.6346745","-0.15714297","9.661052","roll back","1"
"120447727904831","3","-1.6322789","-0.15714297","9.670634","roll back","1"
"120447747825352","3","-1.6322789","-0.1906797","9.639493","roll back","1"
"120447767756915","3","-1.6274881","-0.18828419","9.675425","roll back","1"
"120447787677436","3","-1.6250925","-0.17151585","9.665843","roll back","1"
"120447807566863","3","-1.6298835","-0.16193393","9.65147","roll back","1"
"120447827507331","3","-1.6322789","-0.15714297","9.658657","roll back","1"
"120447847438217","3","-1.6298835","-0.17151585","9.644284","roll back","1"
"120447867358842","3","-1.63707","-0.15953842","9.641888","roll back","1"
"120447887257592","3","-1.6203016","-0.15714297","9.665843","roll back","1"
"120447907178269","3","-1.6131152","-0.15474752","9.649075","roll back","1"
"120447927125196","3","-1.6298835","-0.16432944","9.649075","roll back","1"
"120447947045925","3","-1.6179061","-0.1739113","9.67303","roll back","1"
"120447966974311","3","-1.6083243","-0.15953842","9.670634","roll back","1"
"120447986894936","3","-1.6226971","-0.17151585","9.663447","roll back","1"
"120448006788581","3","-1.6274881","-0.15714297","9.649075","roll back","1"
"120448026709311","3","-1.63707","-0.16672489","9.668239","roll back","1"
"120448046656186","3","-1.6274881","-0.16432944","9.677821","roll back","1"
"120448066576863","3","-1.6298835","-0.15714297","9.661052","roll back","1"
"120448086478008","3","-1.6274881","-0.16193393","9.675425","roll back","1"
"120448106398633","3","-1.6203016","-0.18349329","9.675425","roll back","1"
"120448126320613","3","-1.641861","-0.17630681","9.665843","roll back","1"
"120448146241290","3","-1.6346745","-0.14277011","9.677821","roll back","1"
"120448166197748","3","-1.6107197","-0.14516556","9.637098","roll back","1"
"120448186118425","3","-1.6346745","-0.15474752","9.663447","roll back","1"
"120448206006238","3","-1.6274881","-0.152352","9.687403","roll back","1"
"120448225926967","3","-1.6131152","-0.15474752","9.663447","roll back","1"
"120448245849519","3","-1.6155107","-0.15953842","9.6562605","roll back","1"
"120448265770196","3","-1.6274881","-0.16672489","9.67303","roll back","1"
"120448285688321","3","-1.6394655","-0.17151585","9.6562605","roll back","1"
"120448305609050","3","-1.6059287","-0.16672489","9.646679","roll back","1"
"120448325543998","3","-1.6035333","-0.16672489","9.641888","roll back","1"
"120448345464675","3","-1.6250925","-0.16432944","9.668239","roll back","1"
"120448365356446","3","-1.6274881","-0.14995655","9.665843","roll back","1"
"120448385277071","3","-1.6322789","-0.16432944","9.641888","roll back","1"
"120448405230769","3","-1.6322789","-0.16432944","9.689797","roll back","1"
"120448425151446","3","-1.6274881","-0.15474752","9.67303","roll back","1"
"120448445075925","3","-1.6322789","-0.1691204","9.641888","roll back","1"
"120448464996550","3","-1.6250925","-0.16193393","9.653866","roll back","1"
"120448484928842","3","-1.6298835","-0.15714297","9.641888","roll back","1"
"120448504849571","3","-1.6274881","-0.15953842","9.641888","roll back","1"
"120448524778790","3","-1.6179061","-0.1691204","9.677821","roll back","1"
"120448544699467","3","-1.6274881","-0.15953842","9.639493","roll back","1"
"120448564592019","3","-1.6442564","-0.1691204","9.670634","roll back","1"
"120448584512748","3","-1.641861","-0.17151585","9.67303","roll back","1"
"120448604442956","3","-1.6490474","-0.14756107","9.653866","roll back","1"
"120448624363633","3","-1.6610248","-0.13558367","9.658657","roll back","1"
"120448644298842","3","-1.6322789","-0.15714297","9.65147","roll back","1"
"120448664219519","3","-1.6250925","-0.14756107","9.6562605","roll back","1"
"120448684163061","3","-1.6298835","-0.15714297","9.661052","roll back","1"
"120448704083686","3","-1.6514428","-0.1739113","9.6562605","roll back","1"
"120448723997956","3","-1.6322789","-0.16432944","9.65147","roll back","1"
"120448743918581","3","-1.6250925","-0.15953842","9.677821","roll back","1"
"120448763823738","3","-1.641861","-0.16432944","9.665843","roll back","1"
"120448783744415","3","-1.6298835","-0.15474752","9.6562605","roll back","1"
"120448803680717","3","-1.6346745","-0.14756107","9.665843","roll back","1"
"120448823601394","3","-1.6442564","-0.17151585","9.661052","roll back","1"
"120448843529623","3","-1.641861","-0.1739113","9.641888","roll back","1"
"120448863450352","3","-1.6322789","-0.14995655","9.65147","roll back","1"
"120448883390508","3","-1.6322789","-0.12839723","9.670634","roll back","1"
"120448903311446","3","-1.641861","-0.15714297","9.689797","roll back","1"
"120448923234831","3","-1.6658156","-0.16193393","9.6562605","roll back","1"
"120448943155769","3","-1.6610248","-0.14995655","9.661052","roll back","1"
"120448963055717","3","-1.6466519","-0.14756107","9.670634","roll back","1"
"120448982976654","3","-1.6442564","-0.14995655","9.644284","roll back","1"
"120449002888894","3","-1.6466519","-0.15474752","9.613143","roll back","1"
"120449022809831","3","-1.6538383","-0.15953842","9.65147","roll back","1"
"120449042749623","3","-1.6538383","-0.16193393","9.62991","roll back","1"
"120449062670561","3","-1.6610248","-0.15953842","9.65147","roll back","1"
"120449082602279","3","-1.6394655","-0.15474752","9.658657","agitation","1"
"120449102523217","3","-1.6538383","-0.14516556","9.646679","agitation","1"
"120449122452800","3","-1.6538383","-0.15953842","9.680216","agitation","1"
"120449142373738","3","-1.6514428","-0.14756107","9.670634","agitation","1"
"120449162279050","3","-1.6466519","-0.15474752","9.6562605","agitation","1"
"120449182199988","3","-1.6322789","-0.12121078","9.641888","agitation","1"
"120449202138790","3","-1.6514428","-0.14516556","9.646679","agitation","1"
"120449222059727","3","-1.6610248","-0.14756107","9.670634","agitation","1"
"120449241951238","3","-1.6442564","-0.15953842","9.661052","agitation","1"
"120449261872175","3","-1.6514428","-0.152352","9.675425","agitation","1"
"120449281808738","3","-1.6514428","-0.15953842","9.65147","agitation","1"
"120449301729727","3","-1.6538383","-0.15474752","9.637098","agitation","1"
"120449321666602","3","-1.641861","-0.16672489","9.663447","agitation","1"
"120449341587540","3","-1.6442564","-0.152352","9.65147","agitation","1"
"120449361482904","3","-1.6514428","-0.15474752","9.641888","agitation","1"
"120449381403842","3","-1.6634202","-0.14756107","9.641888","agitation","1"
"120449401361863","3","-1.6610248","-0.16193393","9.668239","agitation","1"
"120449421282852","3","-1.6490474","-0.15714297","9.646679","agitation","1"
"120449441173321","3","-1.6466519","-0.13797912","9.641888","agitation","1"
"120449461094258","3","-1.6490474","-0.14277011","9.639493","agitation","1"
"120449481017644","3","-1.6442564","-0.14995655","9.6562605","agitation","1"
"120449500938633","3","-1.641861","-0.14516556","9.675425","agitation","1"
"120449520886446","3","-1.641861","-0.14037463","9.644284","agitation","1"
"120449540807383","3","-1.6514428","-0.13318819","9.665843","agitation","1"
"120449560709258","3","-1.692166","-0.14995655","9.6562605","agitation","1"
"120449580630248","3","-1.6897705","-0.14037463","9.65147","agitation","1"
"120449600568581","3","-1.6538383","-0.14277011","9.680216","agitation","1"
"120449620489571","3","-1.6322789","-0.15714297","9.646679","agitation","1"
"120449640419206","3","-1.6562338","-0.15714297","9.639493","agitation","1"
"120449660340196","3","-1.6993524","-0.17630681","9.685007","agitation","1"
"120449680273269","3","-1.6897705","-0.17151585","9.663447","agitation","1"
"120449700194258","3","-1.677793","-0.13558367","9.627516","agitation","1"
"120449720111602","3","-1.6322789","-0.16672489","9.608352","agitation","1"
"120449740032540","3","-1.6250925","-0.1739113","9.637098","agitation","1"
"120449759960456","3","-1.6658156","-0.14277011","9.634702","agitation","1"
"120449779881394","3","-1.7041433","-0.11881533","9.615538","agitation","1"
"120449799805456","3","-1.7161207","-0.123606294","9.641888","agitation","1"
"120449819726394","3","-1.7233071","-0.13318819","9.6562605","agitation","1"
"120449839634988","3","-1.7257028","-0.15953842","9.617934","agitation","1"
"120449859555977","3","-1.7089343","-0.14756107","9.641888","agitation","1"
"120449879492748","3","-1.682584","-0.07809219","9.677821","agitation","1"
"120449899413738","3","-1.6993524","-0.08288315","9.668239","agitation","1"
"120449919346342","3","-1.7400756","-0.12839723","9.6562605","agitation","1"
"120449939267540","3","-1.7520529","-0.13797912","9.6562605","agitation","1"
"120449959186133","3","-1.7592393","-0.14277011","9.687403","agitation","1"
"120449979107331","3","-1.747262","-0.12600175","9.687403","agitation","1"
"120449999003269","3","-1.7376801","-0.097256005","9.65147","agitation","1"
"120450018924467","3","-1.747262","-0.08048767","9.639493","agitation","1"
"120450038854363","3","-1.7903806","-0.123606294","9.634702","agitation","1"
"120450058775561","3","-1.7807987","-0.10204697","9.62991","agitation","1"
"120450078694936","3","-1.7712168","-0.097256005","9.62512","agitation","1"
"120450098616133","3","-1.7831941","-0.1307927","9.641888","agitation","1"
"120450118536081","3","-1.8071489","-0.094860554","9.62991","agitation","1"
"120450138457331","3","-1.8311037","-0.08767411","9.658657","agitation","1"
"120450158410873","3","-1.8358946","-0.11402434","9.65147","agitation","1"
"120450178332123","3","-1.8191264","-0.11881533","9.637098","agitation","1"
"120450198243269","3","-1.8119398","-0.11162889","9.59877","agitation","1"
"120450218164467","3","-1.8119398","-0.08288315","9.62512","agitation","1"
"120450238085196","3","-1.8143353","-0.068510264","9.677821","agitation","1"
"120450258006394","3","-1.8598495","-0.10204697","9.661052","agitation","1"
"120450277960144","3","-1.8454766","-0.10444245","9.634702","agitation","1"
"120450297881342","3","-1.8215218","-0.07809219","9.634702","agitation","1"
"120450317783946","3","-1.8287083","-0.08767411","9.632307","agitation","1"
"120450337705144","3","-1.8287083","-0.097256005","9.661052","agitation","1"
"120450357630769","3","-1.8454766","-0.10923341","9.627516","agitation","1"
"120450377551967","3","-1.857454","-0.08288315","9.608352","agitation","1"
"120450397484154","3","-1.8287083","-0.05653289","9.622725","agitation","1"
"120450417405404","3","-1.8215218","-0.099651486","9.637098","agitation","1"
"120450437325717","3","-1.8263128","-0.09006956","9.649075","agitation","1"
"120450457246915","3","-1.8454766","-0.08288315","9.653866","agitation","1"
"120450477178321","3","-1.9101545","-0.06371933","9.687403","agitation","1"
"120450497099519","3","-1.9341092","-0.05653289","9.646679","agitation","1"
"120450517024727","3","-1.8909907","-0.07809219","9.675425","agitation","1"
"120450536945925","3","-1.852663","-0.10923341","9.646679","agitation","1"
"120450556896706","3","-1.8382901","-0.123606294","9.627516","agitation","1"
"120450576817904","3","-1.8334992","-0.10204697","9.617934","agitation","1"
"120450596719883","3","-1.8406856","-0.07809219","9.622725","agitation","1"
"120450616641081","3","-1.8287083","-0.09006956","9.632307","agitation","1"
"120450636599727","3","-1.802358","-0.09246507","9.591583","agitation","1"
"120450656520925","3","-1.8047535","-0.08767411","9.586792","agitation","1"
"120450676403946","3","-1.8478721","-0.06371933","9.57242","agitation","1"
"120450696325144","3","-1.862245","-0.08767411","9.646679","agitation","1"
"120450716280873","3","-1.8430811","-0.12121078","9.713753","agitation","1"
"120450736202123","3","-1.8382901","-0.12839723","9.62512","agitation","1"
"120450756123477","3","-1.8191264","-0.068510264","9.526905","agitation","1"
"120450776044675","3","-1.7688214","-0.06371933","9.622725","agitation","1"
"120450795966967","3","-1.7927761","-0.09246507","9.668239","agitation","1"
"120450815888165","3","-1.8047535","-0.11402434","9.663447","agitation","1"
"120450835847956","3","-1.802358","-0.10923341","9.57721","agitation","1"
"120450855769154","3","-1.8382901","-0.08767411","9.60356","agitation","1"
"120450875663686","3","-1.8885952","-0.05892834","9.711357","agitation","1"
"120450895584883","3","-1.8694314","-0.05653289","9.792804","agitation","1"
"120450915513008","3","-1.8311037","-0.123606294","9.57721","agitation","1"
"120450935434206","3","-1.7903806","-0.12121078","9.536487","agitation","1"
"120450955361029","3","-1.7879851","-0.068510264","9.639493","agitation","1"
"120450975282696","3","-1.7879851","-0.06132382","9.737708","agitation","1"
"120450995238008","3","-1.7879851","-0.073301226","9.641888","agitation","1"
"120451015159675","3","-1.8406856","-0.05413738","9.60356","agitation","1"
"120451035067071","3","-1.8478721","-0.025391668","9.711357","agitation","1"
"120451054988738","3","-1.8358946","-0.07569671","9.649075","agitation","1"
"120451074928165","3","-1.7831941","-0.11162889","9.75208","agitation","1"
"120451094849831","3","-1.7855896","-0.11162889","9.646679","agitation","1"
"120451114773581","3","-1.7999625","-0.099651486","9.584397","agitation","1"
"120451134695248","3","-1.7688214","-0.094860554","9.685007","agitation","1"
"120451154639727","3","-1.742471","-0.11641985","9.615538","agitation","1"
"120451174561394","3","-1.7161207","-0.1307927","9.586792","agitation","1"
"120451194487904","3","-1.7137252","-0.13558367","9.646679","agitation","1"
"120451214409571","3","-1.692166","-0.13318819","9.57721","agitation","1"
"120451234310717","3","-1.6849796","-0.13797912","9.605956","agitation","1"
"120451254232383","3","-1.6969569","-0.14995655","9.65147","agitation","1"
"120451274184831","3","-1.6682112","-0.1691204","9.65147","agitation","1"
"120451294106498","3","-1.6682112","-0.14277011","9.685007","agitation","1"
"120451314001342","3","-1.7089343","-0.15714297","9.65147","agitation","1"
"120451333923061","3","-1.7161207","-0.15953842","9.69938","agitation","1"
"120451353877488","3","-1.6873751","-0.15474752","9.687403","agitation","1"
"120451373799154","3","-1.6562338","-0.14037463","9.60356","agitation","1"
"120451393709727","3","-1.641861","-0.12600175","9.613143","agitation","1"
"120451413636029","3","-1.6346745","-0.15474752","9.677821","agitation","1"
"120451433557644","3","-1.6466519","-0.16193393","9.653866","agitation","1"
"120451453490040","3","-1.5867649","-0.14995655","9.620329","agitation","1"
"120451473411706","3","-1.5628102","-0.13558367","9.637098","agitation","1"
"120451493372436","3","-1.6011379","-0.14277011","9.637098","agitation","1"
"120451513294050","3","-1.682584","-0.14756107","9.67303","agitation","1"
"120451533208842","3","-1.682584","-0.17151585","9.696984","agitation","1"
"120451553130508","3","-1.6945615","-0.1739113","9.593979","agitation","1"
"120451573058998","3","-1.6969569","-0.1739113","9.682611","agitation","1"
"120451592980613","3","-1.6514428","-0.11162889","9.701775","agitation","1"
"120451612887956","3","-1.6466519","-0.09246507","9.675425","agitation","1"
"120451632809623","3","-1.6634202","-0.12600175","9.680216","agitation","1"
"120451652731706","3","-1.6538383","-0.19547066","9.720939","agitation","1"
"120451672653373","3","-1.6442564","-0.20744804","9.634702","agitation","1"
"120451692566602","3","-1.5939513","-0.1906797","9.605956","agitation","1"
"120451712488269","3","-1.6179061","-0.16672489","9.62512","agitation","1"
"120451732421133","3","-1.63707","-0.16432944","9.634702","agitation","1"
"120451752342800","3","-1.6298835","-0.16193393","9.661052","agitation","1"
"120451772268477","3","-1.6203016","-0.18828419","9.639493","agitation","1"
"120451792190144","3","-1.5939513","-0.17151585","9.644284","agitation","1"
"120451812088790","3","-1.6059287","-0.14995655","9.637098","agitation","1"
"120451832010456","3","-1.6610248","-0.14516556","9.701775","agitation","1"
"120451851949988","3","-1.6801885","-0.14277011","9.701775","agitation","1"
"120451871871654","3","-1.6203016","-0.14756107","9.634702","agitation","1"
"120451891803217","3","-1.5987422","-0.16672489","9.65147","agitation","1"
"120451911724883","3","-1.6250925","-0.15714297","9.680216","agitation","1"
"120451931599102","3","-1.6586292","-0.14277011","9.680216","agitation","1"
"120451951520769","3","-1.6801885","-0.16432944","9.65147","agitation","1"
"120451971438998","3","-1.6298835","-0.14037463","9.653866","agitation","1"
"120451991360665","3","-1.6179061","-0.13318819","9.639493","agitation","1"
"120452011293008","3","-1.6490474","-0.152352","9.658657","agitation","1"
"120452031214675","3","-1.6610248","-0.19307515","9.617934","agitation","1"
"120452051129675","3","-1.6346745","-0.212239","9.675425","agitation","1"
"120452071051342","3","-1.6322789","-0.1906797","9.670634","agitation","1"
"120452090967279","3","-1.6131152","-0.17630681","9.60356","agitation","1"
"120452110878477","3","-1.6035333","-0.18349329","9.682611","agitation","1"
"120452130747592","3","-1.682584","-0.15714297","9.720939","agitation","1"
"120452150669206","3","-1.7137252","-0.123606294","9.627516","agitation","1"
"120452170639779","3","-1.6897705","-0.10683793","9.605956","agitation","1"
"120452190561446","3","-1.6394655","-0.14277011","9.62991","agitation","1"
"120452210453217","3","-1.6394655","-0.20026156","9.740103","agitation","1"
"120452230374883","3","-1.6586292","-0.212239","9.67303","agitation","1"
"120452250285508","3","-1.682584","-0.19547066","9.57242","agitation","1"
"120452270207175","3","-1.682584","-0.23140284","9.634702","agitation","1"
"120452290156863","3","-1.6490474","-0.262544","9.713753","agitation","1"
"120452310078529","3","-1.6442564","-0.22661188","9.644284","agitation","1"
"120452329960248","3","-1.6466519","-0.19307515","9.591583","agitation","1"
"120452349881915","3","-1.6322789","-0.15714297","9.646679","agitation","1"
"120452369813946","3","-1.6634202","-0.14516556","9.605956","agitation","1"
"120452389735613","3","-1.6442564","-0.14995655","9.637098","agitation","1"
"120452409632331","3","-1.6706066","-0.12600175","9.620329","agitation","1"
"120452429553998","3","-1.6945615","-0.12600175","9.596374","agitation","1"
"120452449513686","3","-1.7400756","-0.15714297","9.617934","agitation","1"
"120452469435352","3","-1.7568438","-0.17870227","9.670634","agitation","1"
"120452489358165","3","-1.7712168","-0.16193393","9.7353115","agitation","1"
"120452509279831","3","-1.742471","-0.18828419","9.711357","agitation","1"
"120452529162071","3","-1.7400756","-0.20744804","9.661052","agitation","1"
"120452549083738","3","-1.747262","-0.212239","9.641888","agitation","1"
"120452569003425","3","-1.7352846","-0.12839723","9.701775","agitation","1"
"120452588925092","3","-1.7592393","-0.07809219","9.649075","agitation","1"
"120452608843738","3","-1.7784032","-0.13318819","9.584397","agitation","1"
"120452628765404","3","-1.747262","-0.16432944","9.677821","agitation","1"
"120452648720092","3","-1.742471","-0.18828419","9.701775","agitation","1"
"120452668641758","3","-1.7927761","-0.17630681","9.622725","agitation","1"
"120452688488113","3","-1.7640303","-0.1307927","9.617934","agitation","1"
"120452708409779","3","-1.7640303","-0.10683793","9.574815","agitation","1"
"120452728393269","3","-1.7280982","-0.12121078","9.593979","agitation","1"
"120452748314936","3","-1.747262","-0.16672489","9.608352","agitation","1"
"120452768246498","3","-1.7568438","-0.1691204","9.653866","agitation","1"
"120452788168165","3","-1.7999625","-0.12839723","9.680216","agitation","1"
"120452808075248","3","-1.8670359","-0.13797912","9.661052","agitation","1"
"120452827996915","3","-1.8694314","-0.14277011","9.6562605","agitation","1"
"120452847923321","3","-1.8287083","-0.19547066","9.639493","agitation","1"
"120452867844988","3","-1.8215218","-0.20026156","9.613143","agitation","1"
"120452887775561","3","-1.8071489","-0.10444245","9.685007","agitation","1"
"120452907697227","3","-1.7784032","-0.073301226","9.586792","agitation","1"
"120452927623738","3","-1.7951715","-0.094860554","9.57242","agitation","1"
"120452947545404","3","-1.8071489","-0.11162889","9.653866","agitation","1"
"120452967444779","3","-1.7640303","-0.12600175","9.644284","agitation","1"
"120452987366446","3","-1.7233071","-0.12839723","9.60356","agitation","1"
"120453007307800","3","-1.7257028","-0.11881533","9.641888","agitation","1"
"120453027229467","3","-1.7688214","-0.123606294","9.675425","agitation","1"
"120453047162279","3","-1.7831941","-0.14037463","9.6562605","agitation","1"
"120453067083946","3","-1.7855896","-0.13318819","9.608352","agitation","1"
"120453087000352","3","-1.7927761","-0.13558367","9.670634","sit up","1"
"120453106922019","3","-1.7927761","-0.123606294","9.658657","sit up","1"
"120453126826498","3","-1.7736123","-0.14037463","9.622725","sit up","1"
"120453146748165","3","-1.7879851","-0.15953842","9.67303","sit up","1"
"120453166698998","3","-1.8287083","-0.15714297","9.680216","sit up","1"
"120453186620717","3","-1.8358946","-0.11881533","9.634702","sit up","1"
"120453206547488","3","-1.8095443","-0.10683793","9.670634","sit up","1"
"120453226469258","3","-1.7544484","-0.11641985","9.639493","sit up","1"
"120453246319519","3","-1.7807987","-0.13318819","9.534092","sit up","1"
"120453266241290","3","-1.8191264","-0.13318819","9.749685","sit up","1"
"120453286200717","3","-1.8334992","-0.12600175","9.680216","sit up","1"
"120453306122488","3","-1.7831941","-0.123606294","9.57242","sit up","1"
"120453326068946","3","-1.7304935","-0.13318819","9.620329","sit up","1"
"120453345990717","3","-1.6945615","-0.15714297","9.57242","sit up","1"
"120453365907019","3","-1.7328892","-0.15474752","9.562838","sit up","1"
"120453385828790","3","-1.7520529","-0.14516556","9.627516","sit up","1"
"120453405747279","3","-1.7736123","-0.15474752","9.610746","sit up","1"
"120453425669050","3","-1.7736123","-0.14995655","9.639493","sit up","1"
"120453445582696","3","-1.7903806","-0.14037463","9.646679","sit up","1"
"120453465504467","3","-1.7951715","-0.123606294","9.661052","sit up","1"
"120453485409519","3","-1.797567","-0.11881533","9.682611","sit up","1"
"120453505331290","3","-1.7879851","-0.13797912","9.677821","sit up","1"
"120453525186967","3","-1.7903806","-0.11641985","9.65147","sit up","1"
"120453545108738","3","-1.7951715","-0.11641985","9.658657","sit up","1"
"120453565098165","3","-1.7903806","-0.12600175","9.634702","sit up","1"
"120453585019936","3","-1.7568438","-0.12839723","9.646679","sit up","1"
"120453604917175","3","-1.7544484","-0.13558367","9.649075","sit up","1"
"120453624838946","3","-1.7688214","-0.152352","9.622725","sit up","1"
"120453644758008","3","-1.7736123","-0.16193393","9.613143","sit up","1"
"120453664679779","3","-1.7688214","-0.15953842","9.622725","sit up","1"
"120453684634883","3","-1.7879851","-0.13318819","9.644284","sit up","1"
"120453704556654","3","-1.7664258","-0.13318819","9.646679","sit up","1"
"120453724482331","3","-1.7760078","-0.123606294","9.644284","sit up","1"
"120453744404050","3","-1.7831941","-0.11641985","9.637098","sit up","1"
"120453764292279","3","-1.802358","-0.123606294","9.634702","sit up","1"
"120453784214050","3","-1.7855896","-0.123606294","9.637098","sit up","1"
"120453804133165","3","-1.7448665","-0.1307927","9.6562605","sit up","1"
"120453824054936","3","-1.7185162","-0.11402434","9.579606","sit up","1"
"120453843976654","3","-1.6993524","-0.11402434","9.60356","sit up","1"
"120453863898425","3","-1.692166","-0.11641985","9.524509","sit up","1"
"120453883826029","3","-1.7017479","-0.14516556","9.529301","sit up","1"
"120453903747800","3","-1.7065388","-0.10444245","9.682611","sit up","1"
"120453923663165","3","-1.7257028","-0.123606294","9.641888","sit up","1"
"120453943584936","3","-1.7400756","-0.19547066","9.582001","sit up","1"
"120453963523894","3","-1.8885952","-0.23619375","9.486182","sit up","1"
"120453983445665","3","-2.3197813","-0.33680388","9.795198","sit up","1"
"120454003315717","3","-2.2263575","-0.17870227","10.089843","sit up","1"
"120454023237436","3","-2.0922108","-0.08048767","9.845504","sit up","1"
"120454043188425","3","-1.8047535","-0.11641985","9.488578","sit up","1"
"120454063110196","3","-1.4262679","-0.16672489","9.304126","sit up","1"
"120454083035040","3","-1.4382453","-0.212239","9.4909725","sit up","1"
"120454102956811","3","-1.5460417","-0.15953842","9.649075","sit up","1"
"120454122898165","3","-1.641861","-0.14756107","9.620329","sit up","1"
"120454142819936","3","-1.7592393","-0.20744804","9.486182","sit up","1"
"120454162738529","3","-1.7760078","-0.08288315","9.57242","sit up","1"
"120454182660300","3","-1.8358946","-0.03497356","9.419108","sit up","1"
"120454202583217","3","-1.9149455","-0.34638575","9.160397","sit up","1"
"120454222504936","3","-2.017951","-0.66977537","9.780826","sit up","1"
"120454242426238","3","-1.972437","-0.7200804","10.240758","sit up","1"
"120454262348008","3","-1.8071489","-0.5907246","10.183267","sit up","1"
"120454282236602","3","-1.6873751","-0.47813705","9.986836","sit up","1"
"120454302158373","3","-1.6706066","-0.2984762","9.663447","sit up","1"
"120454322083321","3","-1.7257028","-0.1906797","9.546069","sit up","1"
"120454342005092","3","-1.9005727","-0.20026156","9.435877","sit up","1"
"120454361927383","3","-1.9820188","-0.34638575","9.565233","sit up","1"
"120454381849154","3","-1.8718269","-0.5116738","9.977255","sit up","1"
"120454401804258","3","-1.7903806","-0.53083766","10.029956","sit up","1"
"120454421726029","3","-1.6083243","-0.46615967","9.65147","sit up","1"
"120454441648998","3","-1.5340643","-0.2817079","9.478996","sit up","1"
"120454461570769","3","-1.5316689","-0.20505258","9.486182","sit up","1"
"120454481495821","3","-1.3448216","-0.19786611","9.574815","sit up","1"
"120454501417592","3","-1.2993075","-0.21942547","9.675425","sit up","1"
"120454521345196","3","-1.4334543","-0.2841033","9.62991","sit up","1"
"120454541266967","3","-1.5436463","-0.4302275","9.574815","sit up","1"
"120454561175300","3","-1.5484372","-0.6386341","9.682611","sit up","1"
"120454581097071","3","-1.5053186","-0.6290523","9.7880125","sit up","1"
"120454600997748","3","-1.4933412","-0.5044874","9.910182","sit up","1"
"120454620919519","3","-1.18672","-0.35357222","9.931741","sit up","1"
"120454640843113","3","-0.89447165","-0.16193393","9.922159","sit up","1"
"120454660764883","3","-0.9711269","-0.068510264","9.682611","sit up","1"
"120454680686602","3","-1.296912","-0.1307927","9.320894","sit up","1"
"120454700608373","3","-1.5412508","-0.11881533","9.299335","sit up","1"
"120454720559831","3","-1.3879402","-0.3871089","9.308917","sit up","1"
"120454740481602","3","-1.296912","-0.26014856","8.961573","sit up","1"
"120454760393738","3","-1.3328443","-0.37992254","9.455041","sit up","1"
"120454780315456","3","-1.3280532","-0.38471344","10.039537","sit up","1"
"120454800248008","3","-1.4358497","-0.23140284","9.783222","sit up","1"
"120454820169779","3","-1.5795784","-0.2553576","9.627516","sit up","1"
"120454840055769","3","-1.512505","-0.30566266","9.795198","sit up","1"
"120454859977540","3","-1.4526181","-0.23619375","9.910182","sit up","1"
"120454879935821","3","-1.4382453","-0.19786611","9.838318","sit up","1"
"120454899857592","3","-1.3136804","-0.10444245","9.792804","sit up","1"
"120454919780352","3","-1.2346295","0.015331477","9.811967","sit up","1"
"120454939702123","3","-1.2394205","-0.07809219","9.823945","sit up","1"
"120454959628633","3","-1.2442114","-0.17151585","9.776035","sit up","1"
"120454979550404","3","-1.2705617","-0.13797912","9.627516","sit up","1"
"120454999438165","3","-1.301703","-0.1307927","9.661052","sit up","1"
"120455019359936","3","-1.3352396","-0.19307515","9.759267","sit up","1"
"120455039281706","3","-1.1771381","-0.19547066","9.711357","sit up","1"
"120455059203633","3","-1.1220421","-0.1691204","9.641888","sit up","1"
"120455079125508","3","-1.2873302","-0.13318819","9.488578","sit up","1"
"120455099047436","3","-1.3591944","-0.2793124","9.486182","sit up","1"
"120455118979988","3","-1.3304486","-0.37513152","9.864668","sit up","1"
"120455138901915","3","-1.3400307","-0.33680388","9.907787","sit up","1"
"120455158838529","3","-1.3304486","-0.20984349","9.649075","sit up","1"
"120455178760404","3","-1.3544035","-0.2553576","9.550859","sit up","1"
"120455198657956","3","-1.3304486","-0.2864988","9.778431","sit up","1"
"120455218579883","3","-1.2657708","-0.25296214","9.862272","sit up","1"
"120455238497019","3","-1.1555787","-0.20984349","9.661052","sit up","1"
"120455258418894","3","-0.9543586","-0.12600175","9.5173235","sit up","1"
"120455278371290","3","-0.8729123","-0.152352","9.558047","sit up","1"
"120455298293217","3","-0.92321736","-0.18109778","9.665843","sit up","1"
"120455318190040","3","-0.99508166","-0.19786611","9.756871","sit up","1"
"120455338111915","3","-1.2226522","-0.26973042","9.756871","sit up","1"
"120455358037488","3","-1.3591944","-0.26733503","9.7880125","sit up","1"
"120455377959415","3","-1.402313","-0.23619375","9.704171","sit up","1"
"120455397879936","3","-1.3639854","-0.25296214","9.675425","sit up","1"
"120455417801863","3","-1.3591944","-0.2841033","9.716147","sit up","1"
"120455437721602","3","-1.3256577","-0.14995655","9.740103","sit up","1"
"120455457643529","3","-1.2346295","-0.46376422","9.680216","sit up","1"
"120455477567956","3","-1.126833","-0.5907246","9.244239","sit up","1"
"120455497489883","3","-1.3807538","-0.2864988","9.60356","sit up","1"
"120455517416863","3","-1.4813639","-0.18349329","10.212012","sit up","1"
"120455537338790","3","-1.4238724","0.05126366","9.950905","sit up","1"
"120455557251706","3","-1.6610248","0.21894714","9.632307","sit up","1"
"120455577173633","3","-1.5867649","-0.18109778","9.716147","sit up","1"
"120455597104102","3","-1.2873302","-0.5643743","9.804781","sit up","1"
"120455617025977","3","-1.1555787","-0.27212593","9.912578","sit up","1"
"120455636943581","3","-1.3783584","-0.15474752","9.917368","sit up","1"
"120455656865508","3","-1.457409","-0.26973042","9.502951","sit up","1"
"120455676780561","3","-1.3136804","-0.1691204","9.328081","sit up","1"
"120455696702488","3","-1.1531833","-0.11162889","9.711357","sit up","1"
"120455716628738","3","-1.0190365","-0.19786611","9.9796505","sit up","1"
"120455736550665","3","-0.8297937","-0.24338022","9.761662","sit up","1"
"120455756507331","3","-0.93040377","-0.20984349","9.471808","sit up","1"
"120455776429206","3","-1.2106748","-0.21463445","9.584397","sit up","1"
"120455796340821","3","-1.3999176","-0.18109778","9.730521","sit up","1"
"120455816262748","3","-1.3687763","-0.16672489","9.641888","sit up","1"
"120455836179779","3","-1.2298386","-0.26014856","9.498159","sit up","1"
"120455856101706","3","-1.1340195","-0.26973042","9.574815","sit up","1"
"120455876006811","3","-1.1915109","-0.21463445","9.531696","sit up","1"
"120455895928686","3","-1.2633753","-0.152352","9.742498","sit up","1"
"120455915846394","3","-1.352008","-0.20026156","9.917368","sit up","1"
"120455935768321","3","-1.3232622","-0.21702996","9.72573","sit up","1"
"120455955654883","3","-1.2609799","-0.2817079","9.548465","sit up","1"
"120455975576811","3","-1.2897255","-0.2984762","9.514928","sit up","1"
"120455995543373","3","-1.2442114","-0.2936853","9.728126","sit up","1"
"120456015465300","3","-1.337635","-0.32961747","9.845504","sit up","1"
"120456035393321","3","-1.4382453","-0.3152446","9.723335","sit up","1"
"120456055315248","3","-1.371172","-0.31764004","9.742498","sit up","1"
"120456075252644","3","-1.241816","-0.2793124","9.792804","sit up","1"
"120456095174623","3","-1.1148556","-0.23379824","9.641888","sit up","1"
"120456115093477","3","-1.1651607","-0.23379824","9.613143","sit up","1"
"120456135015456","3","-1.4238724","-0.2817079","9.816758","sit up","1"
"120456154935092","3","-1.5556237","-0.24098471","9.924555","sit up","1"
"120456174857123","3","-1.5196915","-0.25056663","9.756871","sit up","1"
"120456194776602","3","-1.3472171","-0.2793124","9.685007","sit up","1"
"120456214698581","3","-1.2681663","-0.23379824","9.831131","sit up","1"
"120456234605873","3","-1.2322341","-0.22900733","9.816758","sit up","1"
"120456254527904","3","-1.3352396","-0.23858926","9.641888","sit up","1"
"120456274474102","3","-1.4430362","-0.18349329","9.548465","sit up","1"
"120456294396081","3","-1.4310589","-0.21463445","9.7089615","sit up","1"
"120456314279779","3","-1.3136804","-0.3080581","9.79999","sit up","1"
"120456334201811","3","-1.1795335","-0.27212593","9.706566","sit up","1"
"120456354143165","3","-1.1651607","-0.26493952","9.637098","sit up","1"
"120456374065144","3","-1.2250476","-0.2841033","9.663447","sit up","1"
"120456393978425","3","-1.2849346","-0.24338022","9.685007","sit up","1"
"120456413900456","3","-1.352008","-0.22661188","9.696984","sit up","1"
"120456433808269","3","-1.3687763","-0.26493952","9.637098","sit up","1"
"120456453730300","3","-1.3208668","-0.23619375","9.632307","sit up","1"
"120456473661446","3","-1.337635","-0.23379824","9.677821","sit up","1"
"120456493583373","3","-1.3208668","-0.23140284","9.694589","sit up","1"
"120456513486290","3","-1.2681663","-0.26733503","9.7089615","sit up","1"
"120456533408373","3","-1.2130703","-0.25056663","9.663447","sit up","1"
"120456553374779","3","-1.2346295","-0.23379824","9.639493","sit up","1"
"120456573296811","3","-1.2490025","-0.25056663","9.694589","sit up","1"
"120456593177644","3","-1.2585844","-0.2553576","9.737708","sit up","1"
"120456613099623","3","-1.2657708","-0.25775304","9.716147","sit up","1"
"120456633036238","3","-1.2801437","-0.25296214","9.771244","sit up","1"
"120456652958217","3","-1.2394205","-0.25296214","9.761662","sit up","1"
"120456672892123","3","-1.246607","-0.26014856","9.687403","sit up","1"
"120456692814102","3","-1.2537935","-0.24577567","9.732917","sit up","1"
"120456712731394","3","-1.2537935","-0.25775304","9.749685","sit up","1"
"120456732653425","3","-1.2849346","-0.24577567","9.713753","sit up","1"
"120456752582540","3","-1.2993075","-0.23619375","9.694589","sit up","1"
"120456772504467","3","-1.292121","-0.23858926","9.720939","sit up","1"
"120456792419571","3","-1.296912","-0.25056663","9.687403","sit up","1"
"120456812341550","3","-1.2849346","-0.25296214","9.682611","sit up","1"
"120456832255717","3","-1.2801437","-0.24817112","9.680216","sit up","1"
"120456852177696","3","-1.3112848","-0.23619375","9.668239","sit up","1"
"120456872098008","3","-1.3448216","-0.23379824","9.713753","sit up","1"
"120456892039363","3","-1.2945166","-0.26014856","9.69938","sit up","1"
"120456911947540","3","-1.2585844","-0.26014856","9.644284","sit up","1"
"120456931869519","3","-1.2442114","-0.26014856","9.72573","sit up","1"
"120456951844675","3","-1.2346295","-0.25056663","9.744894","sit up","1"
"120456971766706","3","-1.241816","-0.2553576","9.720939","sit up","1"
"120456991684467","3","-1.2561889","-0.24577567","9.720939","sit up","1"
"120457011606498","3","-1.2609799","-0.22421637","9.687403","sit up","1"
"120457031524936","3","-1.2753527","-0.24577567","9.692194","sit up","1"
"120457051446967","3","-1.2897255","-0.24338022","9.716147","sit up","1"
"120457071367592","3","-1.2825391","-0.22182086","9.711357","sit up","1"
"120457091289623","3","-1.2897255","-0.23140284","9.704171","stand up","1"
"120457111211967","3","-1.2945166","-0.25056663","9.711357","stand up","1"
"120457131133998","3","-1.2825391","-0.2553576","9.689797","stand up","1"
"120457151043998","3","-1.292121","-0.24817112","9.670634","stand up","1"
"120457170965977","3","-1.2993075","-0.25056663","9.716147","stand up","1"
"120457190889883","3","-1.2825391","-0.25056663","9.732917","stand up","1"
"120457210811915","3","-1.2801437","-0.23619375","9.706566","stand up","1"
"120457230754415","3","-1.2849346","-0.24338022","9.69938","stand up","1"
"120457250676446","3","-1.2777481","-0.25296214","9.692194","stand up","1"
"120457270587904","3","-1.2801437","-0.24817112","9.7089615","stand up","1"
"120457290509936","3","-1.2753527","-0.24338022","9.687403","stand up","1"
"120457310453529","3","-1.2585844","-0.24817112","9.685007","stand up","1"
"120457330375561","3","-1.2705617","-0.24577567","9.704171","stand up","1"
"120457350277019","3","-1.2849346","-0.26493952","9.704171","stand up","1"
"120457370199050","3","-1.2777481","-0.25296214","9.682611","stand up","1"
"120457390121915","3","-1.296912","-0.24098471","9.69938","stand up","1"
"120457410043946","3","-1.2873302","-0.24577567","9.649075","stand up","1"
"120457429981133","3","-1.2729573","-0.26733503","9.680216","stand up","1"
"120457449903165","3","-1.2993075","-0.25056663","9.682611","stand up","1"
"120457469787904","3","-1.3088894","-0.25296214","9.670634","stand up","1"
"120457489709936","3","-1.3232622","-0.25056663","9.718544","stand up","1"
"120457509659936","3","-1.3184713","-0.25296214","9.677821","stand up","1"
"120457529581967","3","-1.3208668","-0.25296214","9.682611","stand up","1"
"120457549488686","3","-1.3256577","-0.22900733","9.704171","stand up","1"
"120457569410717","3","-1.3088894","-0.262544","9.704171","stand up","1"
"120457589310873","3","-1.3088894","-0.26493952","9.74729","stand up","1"
"120457609232904","3","-1.3136804","-0.29128978","9.701775","stand up","1"
"120457629146915","3","-1.301703","-0.29608074","9.665843","stand up","1"
"120457649068946","3","-1.3208668","-0.30326715","9.742498","stand up","1"
"120457669009050","3","-1.4047086","-0.21463445","9.766453","stand up","1"
"120457688931081","3","-1.3735673","-0.17630681","9.610746","stand up","1"
"120457708855352","3","-1.2873302","-0.1691204","9.694589","stand up","1"
"120457728777383","3","-1.1819291","-0.17870227","9.891018","stand up","1"
"120457748688946","3","-1.1579742","-0.26973042","9.833527","stand up","1"
"120457768610977","3","-1.2897255","-0.2864988","9.574815","stand up","1"
"120457788512540","3","-1.3975221","-0.262544","9.582001","stand up","1"
"120457808434571","3","-1.4358497","-0.22900733","9.7353115","stand up","1"
"120457828355144","3","-1.4214768","-0.17151585","9.723335","stand up","1"
"120457848277175","3","-1.301703","-0.1691204","9.692194","stand up","1"
"120457868170925","3","-1.2537935","-0.22900733","9.744894","stand up","1"
"120457888092956","3","-1.3208668","-0.26733503","9.7353115","stand up","1"
"120457908020144","3","-1.356799","-0.3080581","9.72573","stand up","1"
"120457927942123","3","-1.3783584","-0.212239","9.764058","stand up","1"
"120457947846758","3","-1.3304486","-0.20265707","9.694589","stand up","1"
"120457967768529","3","-1.2513978","-0.31045356","9.711357","stand up","1"
"120457987692227","3","-1.3639854","-0.29128978","9.677821","stand up","1"
"120458007614050","3","-1.3927312","-0.21463445","9.59877","stand up","1"
"120458027487071","3","-1.1771381","-0.21942547","9.783222","stand up","1"
"120458047408946","3","-0.9974772","-0.2793124","9.74729","stand up","1"
"120458067373373","3","-1.1723471","-0.33201286","9.653866","stand up","1"
"120458087295196","3","-1.2442114","-0.2793124","9.766453","stand up","1"
"120458107168529","3","-1.0022681","-0.1307927","9.874249","stand up","1"
"120458127090404","3","-0.99508166","-0.10683793","9.740103","stand up","1"
"120458147020925","3","-1.3232622","-0.1691204","9.605956","stand up","1"
"120458166942800","3","-1.4502226","-0.26493952","9.689797","stand up","1"
"120458186859258","3","-1.2010928","-0.33680388","9.685007","stand up","1"
"120458206781029","3","-1.0214319","-0.2984762","9.584397","stand up","1"
"120458226699415","3","-1.1771381","-0.24817112","9.749685","stand up","1"
"120458246621290","3","-1.1963019","-0.24817112","9.941323","stand up","1"
"120458266541654","3","-1.1172512","-0.2793124","9.718544","stand up","1"
"120458286463529","3","-1.1412059","-0.22661188","9.440668","stand up","1"
"120458306384258","3","-1.2633753","-0.3200355","9.570024","stand up","1"
"120458326306081","3","-1.411895","-0.44220492","9.850295","stand up","1"
"120458346247800","3","-1.5340643","-0.36315414","9.867063","stand up","1"
"120458366169623","3","-1.3975221","-0.27212593","9.67303","stand up","1"
"120458386063165","3","-1.1100647","-0.1906797","9.529301","stand up","1"
"120458405985040","3","-0.98070884","-0.22661188","9.634702","stand up","1"
"120458425900977","3","-1.2034883","-0.37992254","9.7880125","stand up","1"
"120458445822852","3","-1.3424261","-0.2793124","9.795198","stand up","1"
"120458465766602","3","-1.0741324","-0.097256005","9.663447","stand up","1"
"120458485688425","3","-0.7866751","-0.22182086","9.570024","stand up","1"
"120458505580508","3","-0.78907055","-0.262544","9.653866","stand up","1"
"120458525502331","3","-0.9327993","-0.20026156","9.862272","stand up","1"
"120458545447956","3","-1.1076692","-0.2864988","9.943719","stand up","1"
"120458565369831","3","-1.306494","-0.26493952","9.75208","stand up","1"
"120458585249258","3","-1.4406407","-0.32482645","9.546069","stand up","1"
"120458605171081","3","-1.1603698","-0.34638575","9.493369","stand up","1"
"120458625124467","3","-0.76751125","-0.09246507","9.759267","stand up","1"
"120458645046290","3","-0.7196017","-0.073301226","9.886227","stand up","1"
"120458664967852","3","-0.8729123","-0.19547066","9.756871","stand up","1"
"120458684889675","3","-1.1076692","-0.22182086","9.680216","stand up","1"
"120458704776550","3","-1.3160758","-0.26014856","9.675425","stand up","1"
"120458724698373","3","-1.3208668","-0.25296214","9.696984","stand up","1"
"120458744646498","3","-1.1220421","-0.17630681","9.754476","stand up","1"
"120458764568321","3","-1.0645506","-0.16193393","9.675425","stand up","1"
"120458784461758","3","-1.1651607","-0.18588868","9.6562605","stand up","1"
"120458804383581","3","-1.1675562","-0.26733503","9.917368","stand up","1"
"120458824314936","3","-1.1627653","-0.1739113","9.579606","stand up","1"
"120458844236811","3","-1.2442114","-0.18349329","9.601165","stand up","1"
"120458864151654","3","-1.1172512","-0.23858926","9.867063","stand up","1"
"120458884073529","3","-1.0837145","-0.21702996","9.65147","stand up","1"
"120458904000717","3","-1.126833","-0.20026156","9.718544","stand up","1"
"120458923922540","3","-1.1531833","-0.20744804","9.716147","stand up","1"
"120458943864519","3","-1.1579742","-0.20744804","9.665843","stand up","1"
"120458963786394","3","-1.1555787","-0.21463445","9.759267","stand up","1"
"120458983687331","3","-1.1483923","-0.20744804","9.723335","stand up","1"
"120459003609154","3","-1.1651607","-0.212239","9.716147","stand up","1"
"120459023547852","3","-1.1723471","-0.20984349","9.716147","stand up","1"
"120459043469727","3","-1.1292286","-0.212239","9.696984","stand up","1"
"120459063395300","3","-1.1292286","-0.22182086","9.720939","stand up","1"
"120459083317071","3","-1.136415","-0.20984349","9.74729","stand up","1"
"120459103210977","3","-1.1555787","-0.20744804","9.687403","stand up","1"
"120459123132852","3","-1.1675562","-0.19307515","9.69938","stand up","1"
"120459143056081","3","-1.1459968","-0.212239","9.728126","stand up","1"
"120459162977956","3","-1.1483923","-0.21942547","9.723335","stand up","1"
"120459182891029","3","-1.1388104","-0.20265707","9.730521","stand up","1"
"120459202812904","3","-1.1579742","-0.20505258","9.711357","stand up","1"
"120459222722175","3","-1.1388104","-0.20984349","9.713753","stand up","1"
"120459242643738","3","-1.1244376","-0.20265707","9.704171","stand up","1"
"120459262603581","3","-1.1244376","-0.212239","9.72573","stand up","1"
"120459282525196","3","-1.1459968","-0.21702996","9.711357","stand up","1"
"120459302448269","3","-1.1555787","-0.212239","9.7089615","stand up","1"
"120459322369831","3","-1.1459968","-0.22421637","9.728126","stand up","1"
"120459342289988","3","-1.1507878","-0.20744804","9.72573","stand up","1"
"120459362211550","3","-1.1292286","-0.19786611","9.728126","stand up","1"
"120459382102696","3","-1.1340195","-0.22182086","9.718544","stand up","1"
"120459402024258","3","-1.1388104","-0.20744804","9.711357","stand up","1"
"120459421909467","3","-1.1555787","-0.20505258","9.718544","stand up","1"
"120459441831029","3","-1.1459968","-0.212239","9.732917","stand up","1"
"120459461810613","3","-1.1555787","-0.20744804","9.69938","stand up","1"
"120459481732175","3","-1.1507878","-0.20984349","9.706566","stand up","1"
"120459501629675","3","-1.1388104","-0.21463445","9.730521","stand up","1"
"120459521551238","3","-1.136415","-0.21463445","9.706566","stand up","1"
"120459541471863","3","-1.1459968","-0.21942547","9.716147","stand up","1"
"120459561393425","3","-1.1651607","-0.20984349","9.737708","stand up","1"
"120459581328894","3","-1.1412059","-0.20744804","9.72573","stand up","1"
"120459601250456","3","-1.136415","-0.22182086","9.685007","stand up","1"
"120459621154206","3","-1.1148556","-0.21702996","9.704171","stand up","1"
"120459641075769","3","-1.131624","-0.20744804","9.720939","stand up","1"
"120459661025248","3","-1.1340195","-0.20984349","9.7089615","stand up","1"
"120459680930665","3","-1.1723471","-0.20744804","9.716147","stand up","1"
"120459700852175","3","-1.1507878","-0.21702996","9.716147","stand up","1"
"120459720761238","3","-1.1244376","-0.212239","9.713753","stand up","1"
"120459740682800","3","-1.1388104","-0.20505258","9.720939","stand up","1"
"120459760594831","3","-1.1388104","-0.20984349","9.730521","stand up","1"
"120459780516394","3","-1.1483923","-0.19307515","9.716147","stand up","1"
"120459800450665","3","-1.1531833","-0.20026156","9.704171","stand up","1"
"120459820372227","3","-1.1436014","-0.21702996","9.696984","stand up","1"
"120459840294779","3","-1.1196465","-0.20026156","9.711357","stand up","1"
"120459860216342","3","-1.1124601","-0.20505258","9.7089615","stand up","1"
"120459880156394","3","-1.1412059","-0.21702996","9.694589","stand up","1"
"120459900078008","3","-1.1483923","-0.20505258","9.711357","stand up","1"
"120459920009675","3","-1.1555787","-0.19547066","9.740103","stand up","1"
"120459939931238","3","-1.1412059","-0.20744804","9.728126","stand up","1"
"120459959816394","3","-1.1052737","-0.21463445","9.696984","stand up","1"
"120459979738008","3","-1.1292286","-0.21463445","9.69938","stand up","1"
"120459999658842","3","-1.1412059","-0.20744804","9.728126","stand up","1"
"120460019580404","3","-1.1603698","-0.20026156","9.723335","stand up","1"
"120460039484779","3","-1.1483923","-0.212239","9.7089615","stand up","1"
"120460059406342","3","-1.1507878","-0.212239","9.713753","stand up","1"
"120460079347852","3","-1.1148556","-0.20265707","9.720939","stand up","1"
"120460099269415","3","-1.131624","-0.20505258","9.718544","stand up","1"
"120460119206602","3","-1.1340195","-0.20265707","9.696984","stand up","1"
"120460139128165","3","-1.1555787","-0.20026156","9.72573","stand up","1"
"120460159035561","3","-1.1412059","-0.19547066","9.7353115","stand up","1"
"120460178957123","3","-1.126833","-0.21463445","9.716147","stand up","1"
"120460198881290","3","-1.126833","-0.21463445","9.723335","stand up","1"
"120460218802852","3","-1.1244376","-0.20984349","9.728126","stand up","1"
"120460238725144","3","-1.1292286","-0.20984349","9.718544","stand up","1"
"120460258646758","3","-1.1412059","-0.19786611","9.696984","stand up","1"
"120460278578529","3","-1.1507878","-0.19307515","9.732917","stand up","1"
"120460298500092","3","-1.1220421","-0.212239","9.720939","stand up","1"
"120460318402279","3","-1.126833","-0.21702996","9.713753","stand up","1"
"120460338323842","3","-1.1244376","-0.19786611","9.716147","stand up","1"
"120460358288633","3","-1.131624","-0.18588868","9.723335","stand up","1"
"120460378210196","3","-1.1292286","-0.20984349","9.730521","stand up","1"
"120460398099571","3","-1.1292286","-0.212239","9.718544","stand up","1"
"120460418021133","3","-1.1388104","-0.18828419","9.72573","stand up","1"
"120460437947071","3","-1.1483923","-0.21942547","9.718544","stand up","1"
"120460457868633","3","-1.136415","-0.21942547","9.718544","stand up","1"
"120460477790248","3","-1.136415","-0.20026156","9.711357","stand up","1"
"120460497711811","3","-1.1388104","-0.21463445","9.711357","stand up","1"
"120460517630561","3","-1.1412059","-0.20744804","9.728126","stand up","1"
"120460537552123","3","-1.1340195","-0.21463445","9.720939","stand up","1"
"120460557502436","3","-1.1292286","-0.20744804","9.711357","stand up","1"
"120460577423998","3","-1.1507878","-0.20744804","9.704171","stand up","1"
"120460597326811","3","-1.1412059","-0.19786611","9.711357","stand up","1"
"120460617248373","3","-1.1244376","-0.20984349","9.7089615","stand up","1"
"120460637183113","3","-1.1388104","-0.20984349","9.706566","stand up","1"
"120460657104571","3","-1.136415","-0.20744804","9.723335","stand up","1"
"120460677001394","3","-1.131624","-0.20265707","9.711357","stand up","1"
"120460696922956","3","-1.1459968","-0.20265707","9.69938","stand up","1"
"120460716850561","3","-1.1292286","-0.20026156","9.730521","stand up","1"
"120460736772123","3","-1.1507878","-0.212239","9.732917","stand up","1"
"120460756700040","3","-1.131624","-0.21942547","9.692194","stand up","1"
"120460776621602","3","-1.1483923","-0.1906797","9.723335","stand up","1"
"120460796536238","3","-1.1220421","-0.18828419","9.744894","stand up","1"
"120460816457800","3","-1.1459968","-0.21463445","9.675425","stand up","1"
"120460836395300","3","-1.1340195","-0.20505258","9.701775","stand up","1"
"120460856316863","3","-1.1459968","-0.18828419","9.72573","stand up","1"
"120460876233998","3","-1.1436014","-0.19547066","9.701775","stand up","1"
"120460896155561","3","-1.1340195","-0.20984349","9.711357","stand up","1"
"120460916073373","3","-1.1196465","-0.19786611","9.72573","stand up","1"
"120460935994936","3","-1.1100647","-0.22421637","9.720939","stand up","1"
"120460955900769","3","-1.1483923","-0.20984349","9.713753","stand up","1"
"120460975822331","3","-1.1340195","-0.20026156","9.732917","stand up","1"
"120460995745248","3","-1.1388104","-0.21463445","9.723335","stand up","1"
"120461015666758","3","-1.1292286","-0.21463445","9.701775","stand up","1"
"120461035584988","3","-1.1412059","-0.19547066","9.696984","stand up","1"
"120461055506550","3","-1.1412059","-0.19547066","9.730521","stand up","1"
"120461175012279","3","-1.1555787","-0.1906797","9.670634","stand up","1"
"120461194933842","3","-1.1436014","-0.20744804","9.77364","none","2"
"120461214874623","3","-1.1483923","-0.20984349","9.723335","none","2"
"120461234796186","3","-1.1483923","-0.20026156","9.732917","none","2"
"120461254741863","3","-1.1340195","-0.20984349","9.716147","none","2"
"120461274663425","3","-1.126833","-0.20744804","9.69938","none","2"
"120461294589883","3","-1.131624","-0.20265707","9.711357","none","2"
"120461314511446","3","-1.1340195","-0.20505258","9.723335","none","2"
"120461334424519","3","-1.136415","-0.20265707","9.713753","none","2"
"120461354346081","3","-1.1340195","-0.21463445","9.730521","none","2"
"120461374249154","3","-1.1459968","-0.20505258","9.723335","none","2"
"120461394170717","3","-1.136415","-0.19307515","9.718544","none","2"
"120461414120508","3","-1.1220421","-0.20505258","9.737708","none","2"
"120461434042071","3","-1.1244376","-0.20984349","9.728126","none","2"
"120461453921238","3","-1.1220421","-0.19307515","9.7089615","none","2"
