"Timestamp","Accuracy","Acceleration X","Acceleration Y","Acceleration Z","Label","Cycle"
"120063361039568","3","-1.3256577","0.76990724","9.524509","stand up","0"
"120063380951234","3","-0.8010479","0.9256133","7.232037","none","1"
"120063400845766","3","-0.14468688","1.5819744","10.185662","none","1"
"120063420772745","3","-0.67648304","1.064551","10.564148","none","1"
"120063440684516","3","-0.5135905","1.2154663","9.04781","none","1"
"120063460599828","3","-0.5591046","1.2657713","9.582001","none","1"
"120063480511547","3","-0.53994083","1.2106752","10.008397","none","1"
"120063500437484","3","-0.54473174","1.2466074","9.529301","none","1"
"120063520349307","3","-0.50879955","1.1819295","9.641888","none","1"
"120063540261391","3","-0.47047192","1.2346301","9.776035","none","1"
"120063560173109","3","-0.5423363","1.2346301","9.610746","none","1"
"120063580083578","3","-0.5423363","1.1891159","9.704171","none","1"
"120063599995297","3","-0.5519182","1.2274436","9.687403","none","1"
"120063619893630","3","-0.56868654","1.2322346","9.617934","none","1"
"120063639805349","3","-0.54473174","1.2202572","9.732917","none","1"
"120063659714307","3","-0.520777","1.184325","9.689797","none","1"
"120063679626078","3","-0.51119506","1.2154663","9.670634","none","1"
"120063699543526","3","-0.48963574","1.2705623","9.677821","none","1"
"120063719455297","3","-0.50161314","1.2226527","9.761662","none","1"
"120063739356755","3","-0.55431366","1.2442119","9.670634","none","1"
"120063759268526","3","-0.55431366","1.2633758","9.570024","none","1"
"120063779158161","3","-0.53994083","1.299308","9.816758","none","1"
"120063799069984","3","-0.515986","1.2561893","9.768848","none","1"
"120063819012172","3","-0.44891262","1.1675566","9.692194","none","1"
"120063838923943","3","-0.47047192","1.1819295","9.665843","none","1"
"120063858838422","3","-0.5135905","1.2274436","9.696984","none","1"
"120063878750141","3","-0.50400865","1.1436019","9.644284","none","1"
"120063898652745","3","-0.51119506","1.1172516","9.661052","none","1"
"120063918564463","3","-0.5135905","1.129229","9.653866","none","1"
"120063938461911","3","-0.53275436","1.1867205","9.663447","none","1"
"120063958373682","3","-0.5183815","1.2154663","9.682611","none","1"
"120063978277276","3","-0.48005384","1.13402","9.620329","none","1"
"120063998189047","3","-0.46568096","1.1412064","9.613143","none","1"
"120064018118943","3","-0.4584945","1.1627656","9.728126","none","1"
"120064038030661","3","-0.48963574","1.1963024","9.756871","none","1"
"120064057909203","3","-0.5135905","1.2010933","9.639493","none","1"
"120064077820974","3","-0.4824493","1.1603702","9.680216","none","1"
"120064097755766","3","-0.4728674","1.1891159","9.687403","none","1"
"120064117667484","3","-0.48724028","1.1915114","9.701775","none","1"
"120064137582432","3","-0.47526285","1.1651611","9.689797","none","1"
"120064157494151","3","-0.47765836","1.1771386","9.685007","none","1"
"120064177418838","3","-0.47047192","1.174743","9.685007","none","1"
"120064197330557","3","-0.47765836","1.1771386","9.668239","none","1"
"120064217228526","3","-0.49442673","1.184325","9.694589","none","1"
"120064237140297","3","-0.49682218","1.1795341","9.696984","none","1"
"120064257040297","3","-0.49203122","1.1819295","9.687403","none","1"
"120064276952068","3","-0.46568096","1.1819295","9.649075","none","1"
"120064296865713","3","-0.45130807","1.1771386","9.670634","none","1"
"120064316777432","3","-0.4728674","1.1891159","9.694589","none","1"
"120064336661182","3","-0.47526285","1.1939069","9.67303","none","1"
"120064356572901","3","-0.48005384","1.1891159","9.682611","none","1"
"120064376520193","3","-0.50400865","1.1891159","9.706566","none","1"
"120064396431963","3","-0.47526285","1.1795341","9.696984","none","1"
"120064416286495","3","-0.46807644","1.184325","9.677821","none","1"
"120064436234411","3","-0.44651714","1.174743","9.663447","none","1"
"120064456134463","3","-0.47765836","1.1891159","9.694589","none","1"
"120064476046234","3","-0.48005384","1.1867205","9.696984","none","1"
"120064495988734","3","-0.47047192","1.1795341","9.687403","none","1"
"120064515900505","3","-0.46568096","1.1795341","9.682611","none","1"
"120064535772693","3","-0.4824493","1.1771386","9.689797","none","1"
"120064555684411","3","-0.47047192","1.1675566","9.689797","none","1"
"120064575624828","3","-0.45609906","1.1771386","9.704171","none","1"
"120064595536495","3","-0.47765836","1.1819295","9.689797","none","1"
"120064615427432","3","-0.48005384","1.184325","9.687403","none","1"
"120064635339151","3","-0.46089","1.1891159","9.692194","none","1"
"120064655262120","3","-0.48005384","1.1915114","9.685007","none","1"
"120064675173891","3","-0.46568096","1.1819295","9.692194","none","1"
"120064695075193","3","-0.46089","1.1867205","9.677821","none","1"
"120064714986911","3","-0.47765836","1.1723477","9.689797","none","1"
"120064734898213","3","-0.46807644","1.1819295","9.682611","none","1"
"120064754809984","3","-0.46089","1.1819295","9.687403","none","1"
"120064774717693","3","-0.4728674","1.1891159","9.685007","none","1"
"120064794629463","3","-0.48005384","1.1819295","9.692194","none","1"
"120064814548682","3","-0.46568096","1.1795341","9.685007","none","1"
"120064834460453","3","-0.46807644","1.1819295","9.7089615","none","1"
"120064854377328","3","-0.46089","1.184325","9.689797","none","1"
"120064874289047","3","-0.47526285","1.1771386","9.682611","none","1"
"120064894199776","3","-0.4728674","1.1795341","9.716147","none","1"
"120064914111495","3","-0.46328548","1.1891159","9.685007","none","1"
"120064933995766","3","-0.47526285","1.1939069","9.682611","none","1"
"120064953907536","3","-0.47047192","1.174743","9.680216","none","1"
"120064973848838","3","-0.48724028","1.1771386","9.685007","none","1"
"120064993760609","3","-0.4728674","1.184325","9.680216","none","1"
"120065013644255","3","-0.46328548","1.1867205","9.680216","none","1"
"120065033555974","3","-0.4728674","1.1891159","9.689797","none","1"
"120065053463995","3","-0.48724028","1.1963024","9.69938","none","1"
"120065073375766","3","-0.4584945","1.1771386","9.685007","none","1"
"120065093271182","3","-0.4728674","1.1555792","9.706566","none","1"
"120065113182953","3","-0.46328548","1.1867205","9.706566","none","1"
"120065133117016","3","-0.4728674","1.1867205","9.69938","none","1"
"120065153028734","3","-0.48724028","1.1699522","9.675425","none","1"
"120065172938057","3","-0.48724028","1.1867205","9.680216","none","1"
"120065192849828","3","-0.4728674","1.1963024","9.685007","none","1"
"120065212768005","3","-0.4584945","1.1771386","9.696984","none","1"
"120065232679724","3","-0.46807644","1.1819295","9.689797","none","1"
"120065252589932","3","-0.48724028","1.1819295","9.67303","none","1"
"120065272501651","3","-0.47526285","1.174743","9.682611","none","1"
"120065292413630","3","-0.47526285","1.1867205","9.680216","none","1"
"120065312325349","3","-0.48724028","1.1915114","9.687403","none","1"
"120065332222068","3","-0.47047192","1.184325","9.694589","none","1"
"120065352133838","3","-0.45370355","1.1723477","9.692194","none","1"
"120065372032536","3","-0.46807644","1.184325","9.687403","none","1"
"120065391944359","3","-0.48005384","1.1915114","9.685007","none","1"
"120065411871443","3","-0.47765836","1.1891159","9.69938","none","1"
"120065431783213","3","-0.45370355","1.1915114","9.692194","none","1"
"120065451675661","3","-0.47526285","1.1891159","9.706566","none","1"
"120065471587224","3","-0.47526285","1.1891159","9.685007","none","1"
"120065491519880","3","-0.47047192","1.1819295","9.682611","none","1"
"120065511431338","3","-0.46568096","1.1771386","9.685007","none","1"
"120065531352380","3","-0.46807644","1.184325","9.696984","none","1"
"120065551263943","3","-0.48724028","1.184325","9.687403","none","1"
"120065571182588","3","-0.4824493","1.1771386","9.689797","none","1"
"120065591094151","3","-0.46568096","1.1891159","9.701775","none","1"
"120065611002745","3","-0.48005384","1.1963024","9.69938","none","1"
"120065630914255","3","-0.48963574","1.174743","9.677821","none","1"
"120065650801130","3","-0.45370355","1.174743","9.704171","none","1"
"120065670712641","3","-0.46328548","1.1819295","9.696984","none","1"
"120065690644672","3","-0.49442673","1.1795341","9.675425","none","1"
"120065710556182","3","-0.46089","1.1723477","9.704171","none","1"
"120065730449984","3","-0.46807644","1.1819295","9.696984","none","1"
"120065750361495","3","-0.48484477","1.1963024","9.706566","none","1"
"120065770273630","3","-0.4728674","1.1891159","9.69938","none","1"
"120065790185141","3","-0.46568096","1.1963024","9.680216","none","1"
"120065810110505","3","-0.47047192","1.174743","9.670634","none","1"
"120065830022068","3","-0.47526285","1.1795341","9.696984","none","1"
"120065849932016","3","-0.47526285","1.1939069","9.706566","none","1"
"120065869843578","3","-0.46089","1.1723477","9.665843","none","1"
"120065889758474","3","-0.47047192","1.1699522","9.675425","none","1"
"120065909669984","3","-0.47047192","1.1795341","9.720939","none","1"
"120065929570870","3","-0.46328548","1.1819295","9.682611","none","1"
"120065949482432","3","-0.46089","1.174743","9.685007","none","1"
"120065969413943","3","-0.48005384","1.1939069","9.677821","none","1"
"120065989325505","3","-0.47526285","1.1891159","9.680216","none","1"
"120066009215557","3","-0.4584945","1.1675566","9.675425","none","1"
"120066029127172","3","-0.46328548","1.1867205","9.682611","none","1"
"120066049037745","3","-0.4824493","1.1867205","9.701775","none","1"
"120066068949307","3","-0.4824493","1.1915114","9.685007","none","1"
"120066088862432","3","-0.4824493","1.1675566","9.701775","none","1"
"120066108773995","3","-0.4584945","1.1867205","9.680216","none","1"
"120066128686391","3","-0.47526285","1.174743","9.675425","none","1"
"120066148597901","3","-0.46807644","1.184325","9.67303","none","1"
"120066168507432","3","-0.4728674","1.1675566","9.680216","none","1"
"120066188418995","3","-0.48005384","1.1819295","9.67303","none","1"
"120066208327797","3","-0.46328548","1.1819295","9.694589","none","1"
"120066228239307","3","-0.46807644","1.1675566","9.696984","none","1"
"120066248154411","3","-0.47047192","1.1891159","9.680216","none","1"
"120066268065974","3","-0.4728674","1.1986979","9.687403","none","1"
"120066287955297","3","-0.48005384","1.1963024","9.692194","none","1"
"120066307866859","3","-0.47047192","1.1699522","9.677821","none","1"
"120066327801182","3","-0.47526285","1.1723477","9.694589","none","1"
"120066347712693","3","-0.47047192","1.1867205","9.694589","none","1"
"120066367617745","3","-0.4824493","1.1867205","9.67303","none","1"
"120066387529307","3","-0.47047192","1.1867205","9.675425","none","1"
"120066407463005","3","-0.46807644","1.1867205","9.694589","none","1"
"120066427374516","3","-0.46807644","1.1819295","9.706566","none","1"
"120066447264516","3","-0.4824493","1.1795341","9.685007","none","1"
"120066467176026","3","-0.4584945","1.1723477","9.680216","none","1"
"120066487089203","3","-0.46568096","1.1819295","9.670634","none","1"
"120066507000818","3","-0.4584945","1.174743","9.689797","none","1"
"120066526912901","3","-0.46089","1.1603702","9.692194","none","1"
"120066546824516","3","-0.47526285","1.1675566","9.689797","none","1"
"120066566707693","3","-0.46328548","1.184325","9.680216","none","1"
"120066586619307","3","-0.49203122","1.1819295","9.687403","none","1"
"120066606562120","3","-0.4824493","1.1675566","9.696984","none","1"
"120066626473682","3","-0.4824493","1.174743","9.689797","none","1"
"120066646378734","3","-0.4728674","1.1867205","9.694589","none","1"
"120066666290297","3","-0.48005384","1.1819295","9.675425","none","1"
"120066686197693","3","-0.4728674","1.1891159","9.663447","none","1"
"120066706109307","3","-0.48005384","1.1891159","9.668239","none","1"
"120066726020766","3","-0.45609906","1.1723477","9.677821","none","1"
"120066745932380","3","-0.47526285","1.1723477","9.687403","none","1"
"120066765844724","3","-0.47047192","1.1771386","9.69938","none","1"
"120066785756338","3","-0.47047192","1.1867205","9.689797","none","1"
"120066805674151","3","-0.47526285","1.1867205","9.670634","none","1"
"120066825585766","3","-0.47526285","1.1819295","9.694589","none","1"
"120066845488995","3","-0.47526285","1.1795341","9.694589","none","1"
"120066865400609","3","-0.47526285","1.1795341","9.689797","none","1"
"120066885304255","3","-0.4728674","1.1795341","9.689797","none","1"
"120066905215870","3","-0.46807644","1.1771386","9.687403","none","1"
"120066925128005","3","-0.47047192","1.1939069","9.680216","none","1"
"120066945039568","3","-0.48484477","1.1819295","9.665843","none","1"
"120066964962849","3","-0.48005384","1.1771386","9.685007","none","1"
"120066984874463","3","-0.47047192","1.1819295","9.711357","none","1"
"120067004773057","3","-0.47526285","1.1891159","9.682611","none","1"
"120067024684672","3","-0.49442673","1.1963024","9.692194","none","1"
"120067044584672","3","-0.46807644","1.174743","9.694589","none","1"
"120067064496234","3","-0.46089","1.1867205","9.685007","none","1"
"120067084412380","3","-0.48484477","1.184325","9.689797","none","1"
"120067104323995","3","-0.47765836","1.1795341","9.663447","none","1"
"120067124201338","3","-0.46089","1.1819295","9.680216","none","1"
"120067144112901","3","-0.47526285","1.1915114","9.694589","none","1"
"120067164063422","3","-0.4824493","1.1795341","9.706566","none","1"
"120067183974984","3","-0.47526285","1.1651611","9.692194","none","1"
"120067203885713","3","-0.46568096","1.1699522","9.696984","none","1"
"120067223797276","3","-0.47526285","1.1723477","9.696984","none","1"
"120067243712016","3","-0.47765836","1.1723477","9.680216","none","1"
"120067263623578","3","-0.47047192","1.1699522","9.696984","none","1"
"120067283520766","3","-0.47765836","1.1867205","9.689797","none","1"
"120067303432380","3","-0.46568096","1.1819295","9.685007","none","1"
"120067323354359","3","-0.45130807","1.1723477","9.65147","none","1"
"120067343265974","3","-0.46568096","1.1699522","9.696984","sit down","1"
"120067363157536","3","-0.46328548","1.1891159","9.692194","sit down","1"
"120067383069099","3","-0.48005384","1.1699522","9.682611","sit down","1"
"120067402959828","3","-0.48484477","1.1963024","9.706566","sit down","1"
"120067422871443","3","-0.49442673","1.1867205","9.696984","sit down","1"
"120067442823474","3","-0.46807644","1.184325","9.670634","sit down","1"
"120067462735088","3","-0.48005384","1.1867205","9.701775","sit down","1"
"120067482638734","3","-0.46807644","1.1699522","9.689797","sit down","1"
"120067502550297","3","-0.4584945","1.1627656","9.680216","sit down","1"
"120067522471599","3","-0.46568096","1.174743","9.689797","sit down","1"
"120067542383109","3","-0.45130807","1.184325","9.670634","sit down","1"
"120067562290713","3","-0.46807644","1.1699522","9.670634","sit down","1"
"120067582202224","3","-0.47765836","1.1819295","9.696984","sit down","1"
"120067602106599","3","-0.46807644","1.1771386","9.687403","sit down","1"
"120067622018057","3","-0.47526285","1.1795341","9.670634","sit down","1"
"120067641925505","3","-0.48963574","1.1699522","9.711357","sit down","1"
"120067661836963","3","-0.45370355","1.1819295","9.696984","sit down","1"
"120067681757276","3","-0.4728674","1.1795341","9.694589","sit down","1"
"120067701668786","3","-0.4824493","1.174743","9.682611","sit down","1"
"120067721568578","3","-0.48005384","1.1699522","9.680216","sit down","1"
"120067741480088","3","-0.47047192","1.1771386","9.677821","sit down","1"
"120067761398786","3","-0.45609906","1.1771386","9.680216","sit down","1"
"120067781310297","3","-0.46568096","1.174743","9.680216","sit down","1"
"120067801221443","3","-0.48005384","1.174743","9.665843","sit down","1"
"120067821132953","3","-0.4824493","1.1675566","9.69938","sit down","1"
"120067841044672","3","-0.47047192","1.1675566","9.692194","sit down","1"
"120067860956234","3","-0.46089","1.1579747","9.680216","sit down","1"
"120067880896807","3","-0.46807644","1.174743","9.682611","sit down","1"
"120067900808266","3","-0.46328548","1.1915114","9.696984","sit down","1"
"120067920691078","3","-0.47765836","1.174743","9.677821","sit down","1"
"120067940602536","3","-0.47526285","1.1699522","9.692194","sit down","1"
"120067960518474","3","-0.47765836","1.184325","9.692194","sit down","1"
"120067980429984","3","-0.47047192","1.1771386","9.685007","sit down","1"
"120068000371286","3","-0.46568096","1.1963024","9.677821","sit down","1"
"120068020282797","3","-0.4728674","1.1819295","9.689797","sit down","1"
"120068040158682","3","-0.4728674","1.1723477","9.696984","sit down","1"
"120068060070193","3","-0.47526285","1.1771386","9.682611","sit down","1"
"120068080011963","3","-0.47765836","1.174743","9.694589","sit down","1"
"120068099923474","3","-0.47047192","1.1627656","9.67303","sit down","1"
"120068119839620","3","-0.48005384","1.174743","9.658657","sit down","1"
"120068139751130","3","-0.48005384","1.1795341","9.694589","sit down","1"
"120068159663578","3","-0.46807644","1.1891159","9.69938","sit down","1"
"120068179575088","3","-0.46328548","1.1867205","9.677821","sit down","1"
"120068199456755","3","-0.47765836","1.1627656","9.694589","sit down","1"
"120068219368266","3","-0.4728674","1.1819295","9.696984","sit down","1"
"120068239277172","3","-0.47526285","1.1651611","9.680216","sit down","1"
"120068259188682","3","-0.48484477","1.184325","9.701775","sit down","1"
"120068279092901","3","-0.49682218","1.1699522","9.69938","sit down","1"
"120068299004359","3","-0.46089","1.1867205","9.687403","sit down","1"
"120068318919411","3","-0.46807644","1.1915114","9.701775","sit down","1"
"120068338830922","3","-0.46328548","1.1795341","9.670634","sit down","1"
"120068358745922","3","-0.46568096","1.1819295","9.668239","sit down","1"
"120068378657432","3","-0.46328548","1.1795341","9.687403","sit down","1"
"120068398568266","3","-0.47047192","1.1795341","9.685007","sit down","1"
"120068418479724","3","-0.48724028","1.1867205","9.670634","sit down","1"
"120068438391755","3","-0.49442673","1.1986979","9.682611","sit down","1"
"120068458303266","3","-0.47526285","1.1795341","9.680216","sit down","1"
"120068478218422","3","-0.68606496","1.1723477","9.740103","sit down","1"
"120068498129932","3","-0.06803155","1.1076697","9.634702","sit down","1"
"120068518039672","3","-0.54712725","1.3376356","9.732917","sit down","1"
"120068537951182","3","-0.7196017","1.0262234","9.474205","sit down","1"
"120068557887641","3","-0.37465277","1.2561893","10.077866","sit down","1"
"120068577799203","3","-0.51119506","1.0813195","9.213098","sit down","1"
"120068597686182","3","-0.50879955","1.2370255","9.883832","sit down","1"
"120068617597745","3","-0.39381662","1.2226527","9.728126","sit down","1"
"120068637510088","3","-0.53275436","1.1052742","9.644284","sit down","1"
"120068657421651","3","-0.41537592","1.2034888","9.658657","sit down","1"
"120068677342068","3","-0.63575995","1.2034888","9.627516","sit down","1"
"120068697253630","3","-0.39381662","1.124438","9.847899","sit down","1"
"120068717160036","3","-0.41058496","1.1388109","9.605956","sit down","1"
"120068737071651","3","-0.38183922","1.2537938","9.62991","sit down","1"
"120068757015297","3","-0.4824493","1.184325","9.756871","sit down","1"
"120068776926911","3","-0.46807644","1.1915114","9.608352","sit down","1"
"120068796830766","3","-0.5375453","1.119647","9.69938","sit down","1"
"120068816742328","3","-0.41298044","1.1436019","9.680216","sit down","1"
"120068836630505","3","-0.5279634","1.2370255","9.7353115","sit down","1"
"120068856542068","3","-0.5495227","1.2106752","9.744894","sit down","1"
"120068876463526","3","-0.5183815","1.1436019","9.646679","sit down","1"
"120068896375088","3","-0.41298044","1.1531837","9.593979","sit down","1"
"120068916308474","3","-0.44651714","1.1507883","9.737708","sit down","1"
"120068936220088","3","-0.46568096","1.1963024","9.689797","sit down","1"
"120068956099411","3","-0.49682218","1.1795341","9.696984","sit down","1"
"120068976010974","3","-0.4273533","1.2202572","9.637098","sit down","1"
"120068995925453","3","-0.4033985","1.239421","9.680216","sit down","1"
"120069015837016","3","-0.44651714","1.174743","9.646679","sit down","1"
"120069035754151","3","-0.48724028","1.1268334","9.694589","sit down","1"
"120069055665713","3","-0.50161314","1.1819295","9.685007","sit down","1"
"120069075575088","3","-0.50161314","1.2202572","9.677821","sit down","1"
"120069095486651","3","-0.5064041","1.2226527","9.704171","sit down","1"
"120069115399359","3","-0.48724028","1.1891159","9.653866","sit down","1"
"120069135310922","3","-0.35548896","1.1364155","9.632307","sit down","1"
"120069155190766","3","-0.38183922","1.1915114","9.720939","sit down","1"
"120069175102380","3","-0.44172618","1.1867205","9.730521","sit down","1"
"120069195078474","3","-0.48963574","1.1100652","9.680216","sit down","1"
"120069214990088","3","-0.49682218","1.1220425","9.680216","sit down","1"
"120069234895713","3","-0.38663018","1.1459974","9.704171","sit down","1"
"120069254807328","3","-0.37465277","1.2178617","9.723335","sit down","1"
"120069274708995","3","-0.44891262","1.1364155","9.682611","sit down","1"
"120069294620505","3","-0.47765836","1.1172516","9.649075","sit down","1"
"120069314522068","3","-0.50161314","1.129229","9.685007","sit down","1"
"120069334433682","3","-0.46568096","1.184325","9.7353115","sit down","1"
"120069354353109","3","-0.46807644","1.2801441","9.680216","sit down","1"
"120069374264672","3","-0.47765836","1.2873305","9.620329","sit down","1"
"120069394171599","3","-0.5135905","1.2681668","9.6562605","sit down","1"
"120069414083161","3","-0.44651714","1.2633758","9.653866","sit down","1"
"120069433996859","3","-0.4033985","1.2298391","9.658657","sit down","1"
"120069453908474","3","-0.48005384","1.2034888","9.680216","sit down","1"
"120069473819724","3","-0.53994083","1.2777487","9.704171","sit down","1"
"120069493731286","3","-0.5950368","1.3136808","9.704171","sit down","1"
"120069513634151","3","-0.59982777","1.3256582","9.706566","sit down","1"
"120069533545713","3","-0.46089","1.3807542","9.665843","sit down","1"
"120069553460088","3","-0.36507085","1.3735678","9.596374","sit down","1"
"120069573371651","3","-0.38663018","1.3304492","9.589188","sit down","1"
"120069593319151","3","-0.4393307","1.289726","9.69938","sit down","1"
"120069613230766","3","-0.49921766","1.2681668","9.72573","sit down","1"
"120069633107797","3","-0.46328548","1.2298391","9.694589","sit down","1"
"120069653019359","3","-0.43693522","1.2082798","9.682611","sit down","1"
"120069672929828","3","-0.48724028","1.2226527","9.668239","sit down","1"
"120069692841391","3","-0.49442673","1.2274436","9.680216","sit down","1"
"120069712712849","3","-0.44891262","1.2298391","9.711357","sit down","1"
"120069732624463","3","-0.42256233","1.2106752","9.696984","sit down","1"
"120069752599411","3","-0.41058496","1.1915114","9.665843","sit down","1"
"120069772510974","3","-0.44412166","1.1867205","9.663447","sit down","1"
"120069792404568","3","-0.4584945","1.1891159","9.687403","sit down","1"
"120069812316078","3","-0.4584945","1.1891159","9.740103","sit down","1"
"120069832226338","3","-0.45609906","1.2178617","9.675425","sit down","1"
"120069852137901","3","-0.44412166","1.2442119","9.622725","sit down","1"
"120069872050505","3","-0.43214428","1.239421","9.644284","sit down","1"
"120069891962068","3","-0.42256233","1.2274436","9.665843","sit down","1"
"120069911872797","3","-0.44651714","1.2202572","9.692194","sit down","1"
"120069931784411","3","-0.44651714","1.2226527","9.692194","sit down","1"
"120069951694672","3","-0.44651714","1.1986979","9.713753","sit down","1"
"120069971606234","3","-0.4728674","1.2202572","9.711357","sit down","1"
"120069991511443","3","-0.48484477","1.2322346","9.675425","sit down","1"
"120070011423057","3","-0.46807644","1.2226527","9.665843","sit down","1"
"120070031338370","3","-0.48484477","1.2466074","9.668239","sit down","1"
"120070051249984","3","-0.4824493","1.2729577","9.723335","sit down","1"
"120070071166807","3","-0.46089","1.2585849","9.677821","sit down","1"
"120070091078318","3","-0.45370355","1.2729577","9.661052","sit down","1"
"120070111006026","3","-0.45609906","1.289726","9.685007","sit down","1"
"120070130917641","3","-0.4728674","1.2657713","9.701775","sit down","1"
"120070150824047","3","-0.47526285","1.2657713","9.682611","sit down","1"
"120070170735661","3","-0.49921766","1.2490029","9.653866","sit down","1"
"120070190638318","3","-0.49442673","1.2418165","9.689797","sit down","1"
"120070210549932","3","-0.44891262","1.2322346","9.701775","sit down","1"
"120070230458213","3","-0.4584945","1.2202572","9.696984","sit down","1"
"120070250369776","3","-0.45370355","1.2346301","9.69938","sit down","1"
"120070270230245","3","-0.44651714","1.2370255","9.668239","sit down","1"
"120070290171807","3","-0.46328548","1.2250481","9.634702","sit down","1"
"120070310073005","3","-0.45370355","1.2418165","9.644284","sit down","1"
"120070329984568","3","-0.43453974","1.2466074","9.67303","sit down","1"
"120070349900505","3","-0.43693522","1.239421","9.67303","sit down","1"
"120070369812068","3","-0.43214428","1.2322346","9.67303","sit down","1"
"120070389742849","3","-0.42256233","1.2274436","9.67303","sit down","1"
"120070409654411","3","-0.4393307","1.2370255","9.685007","sit down","1"
"120070429538995","3","-0.44891262","1.2130708","9.668239","sit down","1"
"120070449450557","3","-0.47047192","1.2034888","9.677821","sit down","1"
"120070469359776","3","-0.46568096","1.2274436","9.680216","sit down","1"
"120070489271338","3","-0.45609906","1.2513983","9.67303","sit down","1"
"120070509181391","3","-0.4584945","1.2777487","9.687403","sit down","1"
"120070529092953","3","-0.44172618","1.2513983","9.69938","sit down","1"
"120070548984620","3","-0.46328548","1.2513983","9.675425","sit down","1"
"120070568896234","3","-0.45130807","1.2537938","9.675425","sit down","1"
"120070588814307","3","-0.45130807","1.2442119","9.687403","sit down","1"
"120070608725870","3","-0.45370355","1.2466074","9.682611","sit down","1"
"120070628654359","3","-0.46328548","1.2418165","9.682611","sit down","1"
"120070648565922","3","-0.46568096","1.2466074","9.67303","sit down","1"
"120070668462588","3","-0.46328548","1.2513983","9.677821","sit down","1"
"120070688374151","3","-0.43214428","1.2274436","9.680216","sit down","1"
"120070708280401","3","-0.45130807","1.2178617","9.646679","sit down","1"
"120070728191963","3","-0.4584945","1.2226527","9.677821","sit down","1"
"120070748103734","3","-0.45130807","1.2322346","9.692194","sit down","1"
"120070768015297","3","-0.43693522","1.2609802","9.675425","sit down","1"
"120070787947276","3","-0.44891262","1.2513983","9.649075","sit down","1"
"120070807858838","3","-0.44891262","1.2274436","9.65147","sit down","1"
"120070827733266","3","-0.43693522","1.2418165","9.696984","sit down","1"
"120070847644880","3","-0.44412166","1.2418165","9.670634","sit down","1"
"120070867599255","3","-0.46089","1.239421","9.661052","sit down","1"
"120070887510870","3","-0.46089","1.2466074","9.680216","sit down","1"
"120070907403370","3","-0.44651714","1.2513983","9.692194","sit down","1"
"120070927314932","3","-0.43693522","1.2561893","9.692194","sit down","1"
"120070947229828","3","-0.45130807","1.2370255","9.682611","sit down","1"
"120070967141391","3","-0.45130807","1.2370255","9.680216","sit down","1"
"120070987058422","3","-0.45609906","1.2466074","9.696984","sit down","1"
"120071006969984","3","-0.45130807","1.2418165","9.687403","sit down","1"
"120071026860401","3","-0.4584945","1.2418165","9.689797","sit down","1"
"120071046771963","3","-0.44891262","1.239421","9.687403","sit down","1"
"120071066693213","3","-0.44412166","1.2346301","9.661052","sit down","1"
"120071086604828","3","-0.45609906","1.2466074","9.685007","sit down","1"
"120071106488213","3","-0.44172618","1.2298391","9.675425","sit down","1"
"120071126399776","3","-0.43214428","1.2322346","9.649075","sit down","1"
"120071146333578","3","-0.4393307","1.2298391","9.67303","sit down","1"
"120071166245193","3","-0.4584945","1.2442119","9.675425","sit down","1"
"120071186133995","3","-0.44172618","1.239421","9.682611","sit down","1"
"120071206045609","3","-0.4393307","1.2274436","9.661052","sit down","1"
"120071225962068","3","-0.44651714","1.2418165","9.67303","sit down","1"
"120071245873682","3","-0.44172618","1.239421","9.7089615","sit down","1"
"120071265802172","3","-0.45609906","1.2298391","9.675425","sit down","1"
"120071285713734","3","-0.44651714","1.2298391","9.670634","sit down","1"
"120071305630870","3","-0.44651714","1.239421","9.644284","sit down","1"
"120071325542380","3","-0.45130807","1.2681668","9.668239","sit down","1"
"120071345429359","3","-0.43453974","1.2513983","9.696984","lay down","1"
"120071365340870","3","-0.44651714","1.2490029","9.675425","lay down","1"
"120071385246130","3","-0.44891262","1.2418165","9.687403","lay down","1"
"120071405157641","3","-0.45130807","1.239421","9.685007","lay down","1"
"120071425083838","3","-0.44651714","1.2466074","9.682611","lay down","1"
"120071444995297","3","-0.45370355","1.2561893","9.689797","lay down","1"
"120071464859047","3","-0.44412166","1.2442119","9.694589","lay down","1"
"120071484770557","3","-0.46328548","1.2370255","9.675425","lay down","1"
"120071504733995","3","-0.45370355","1.2561893","9.680216","lay down","1"
"120071524645505","3","-0.43693522","1.239421","9.65147","lay down","1"
"120071544555141","3","-0.4393307","1.2298391","9.677821","lay down","1"
"120071564466651","3","-0.44891262","1.2298391","9.677821","lay down","1"
"120071584347172","3","-0.4584945","1.2370255","9.694589","lay down","1"
"120071604258630","3","-0.44651714","1.2370255","9.668239","lay down","1"
"120071624196651","3","-0.43214428","1.239421","9.649075","lay down","1"
"120071644108161","3","-0.45370355","1.2442119","9.670634","lay down","1"
"120071664003422","3","-0.44412166","1.2370255","9.689797","lay down","1"
"120071683914880","3","-0.44412166","1.2490029","9.67303","lay down","1"
"120071703805974","3","-0.45370355","1.2490029","9.665843","lay down","1"
"120071723717432","3","-0.47765836","1.2466074","9.677821","lay down","1"
"120071743637328","3","-0.43693522","1.2346301","9.67303","lay down","1"
"120071763548838","3","-0.43693522","1.2466074","9.661052","lay down","1"
"120071783463005","3","-0.45130807","1.2466074","9.69938","lay down","1"
"120071803374516","3","-0.44172618","1.2490029","9.7089615","lay down","1"
"120071823266755","3","-0.4177714","1.239421","9.661052","lay down","1"
"120071843178213","3","-0.44651714","1.2418165","9.694589","lay down","1"
"120071863081286","3","-0.4393307","1.2418165","9.723335","lay down","1"
"120071882992797","3","-0.44172618","1.2513983","9.658657","lay down","1"
"120071902897484","3","-0.45609906","1.2226527","9.687403","lay down","1"
"120071922808943","3","-0.42974877","1.1986979","9.675425","lay down","1"
"120071942716495","3","-0.38902566","1.2154663","9.723335","lay down","1"
"120071962627953","3","-0.36986184","1.1867205","9.730521","lay down","1"
"120071982559828","3","-0.36746633","1.1867205","9.67303","lay down","1"
"120072002471338","3","-0.4273533","1.2250481","9.694589","lay down","1"
"120072022346338","3","-0.47765836","1.3256582","9.67303","lay down","1"
"120072042257849","3","-0.53275436","1.4023135","9.680216","lay down","1"
"120072062201599","3","-0.4728674","1.2825396","9.584397","lay down","1"
"120072082113109","3","-0.3914211","1.1483928","9.574815","lay down","1"
"120072102018838","3","-0.43453974","1.2010933","9.730521","lay down","1"
"120072121930297","3","-0.50161314","1.3232627","9.807176","lay down","1"
"120072141807693","3","-0.48963574","1.2825396","9.680216","lay down","1"
"120072161719151","3","-0.43214428","1.2082798","9.608352","lay down","1"
"120072181631599","3","-0.45370355","1.2753532","9.6562605","lay down","1"
"120072201543057","3","-0.46568096","1.3160763","9.732917","lay down","1"
"120072221446391","3","-0.4393307","1.2442119","9.6562605","lay down","1"
"120072241357849","3","-0.4177714","1.2082798","9.615538","lay down","1"
"120072261266286","3","-0.44651714","1.2250481","9.730521","lay down","1"
"120072281177745","3","-0.43214428","1.2537938","9.720939","lay down","1"
"120072301091078","3","-0.43453974","1.2609802","9.622725","lay down","1"
"120072321002588","3","-0.42974877","1.2849351","9.665843","lay down","1"
"120072340911443","3","-0.43693522","1.2705623","9.696984","lay down","1"
"120072360822484","3","-0.45370355","1.2585849","9.677821","lay down","1"
"120072380719307","3","-0.46089","1.2921215","9.632307","lay down","1"
"120072400630297","3","-0.47047192","1.299308","9.675425","lay down","1"
"120072420536703","3","-0.45609906","1.239421","9.682611","lay down","1"
"120072440447693","3","-0.5255679","1.2322346","9.589188","lay down","1"
"120072460353995","3","-0.53275436","1.239421","9.567629","lay down","1"
"120072480265036","3","-0.35309345","1.2657713","9.677821","lay down","1"
"120072500178474","3","-0.26446077","1.2322346","9.653866","lay down","1"
"120072520089516","3","-0.38423467","0.95914996","9.742498","lay down","1"
"120072539997224","3","-0.62138706","0.8106303","9.7353115","lay down","1"
"120072559908266","3","-0.6046187","0.95914996","9.421504","lay down","1"
"120072579818005","3","-0.5638956","1.1771386","9.641888","lay down","1"
"120072599729047","3","-0.5854549","1.2082798","10.015583","lay down","1"
"120072619634776","3","-0.6022232","1.1124606","9.994024","lay down","1"
"120072639545818","3","-0.48005384","1.3376356","9.677821","lay down","1"
"120072659456703","3","-0.34590703","1.5149009","9.5173235","lay down","1"
"120072679367745","3","-0.3051839","1.5172964","9.605956","lay down","1"
"120072699276495","3","-0.30278844","1.5172964","9.663447","lay down","1"
"120072719187536","3","-0.33872062","1.4574095","9.701775","lay down","1"
"120072739121547","3","-0.40100306","1.2633758","9.831131","lay down","1"
"120072759032588","3","-0.39621207","1.1388109","9.792804","lay down","1"
"120072778923370","3","-0.39381662","1.1555792","9.582001","lay down","1"
"120072798834411","3","-0.39860755","1.1579747","9.538883","lay down","1"
"120072818757276","3","-0.5303589","1.2442119","9.718544","lay down","1"
"120072838668318","3","-0.6189916","1.2849351","9.744894","lay down","1"
"120072858585088","3","-0.59264135","1.1891159","9.65147","lay down","1"
"120072878496078","3","-0.44891262","1.0501782","9.627516","lay down","1"
"120072898397641","3","-0.39621207","1.0621556","9.668239","lay down","1"
"120072918308630","3","-0.47047192","1.078924","9.706566","lay down","1"
"120072938225349","3","-0.5064041","1.0885059","9.69938","lay down","1"
"120072958136391","3","-0.45370355","1.1795341","9.694589","lay down","1"
"120072978051495","3","-0.43214428","1.2058843","9.711357","lay down","1"
"120072997962588","3","-0.46807644","1.1867205","9.742498","lay down","1"
"120073017868109","3","-0.48724028","1.3807542","9.6562605","lay down","1"
"120073037779203","3","-0.40100306","1.5220875","9.582001","lay down","1"
"120073057665141","3","-0.31237033","1.3879406","9.653866","lay down","1"
"120073077576182","3","-0.29799744","1.2729577","9.646679","lay down","1"
"120073097482172","3","-0.2692517","1.3064944","9.622725","lay down","1"
"120073117393213","3","-0.33153418","1.2849351","9.718544","lay down","1"
"120073137304776","3","-0.44891262","1.124438","9.828736","lay down","1"
"120073157215818","3","-0.5638956","1.0166415","9.6562605","lay down","1"
"120073177133370","3","-0.5255679","0.9783139","9.605956","lay down","1"
"120073197044411","3","-0.571082","0.99508214","9.831131","lay down","1"
"120073216943682","3","-0.5591046","1.1172516","9.65147","lay down","1"
"120073236854724","3","-0.43693522","1.1627656","9.706566","lay down","1"
"120073256761234","3","-0.40100306","1.2058843","9.730521","lay down","1"
"120073276672276","3","-0.34590703","1.304099","9.574815","lay down","1"
"120073296579151","3","-0.40818948","1.2849351","9.687403","lay down","1"
"120073316490193","3","-0.5519182","1.1795341","9.696984","lay down","1"
"120073336394672","3","-0.51119506","1.1986979","9.620329","lay down","1"
"120073356305713","3","-0.45370355","1.3256582","9.756871","lay down","1"
"120073376229359","3","-0.56868654","1.4262683","9.761662","lay down","1"
"120073396140401","3","-0.5135905","1.3711723","9.548465","lay down","1"
"120073416032797","3","-0.30757937","1.2753532","9.4909725","lay down","1"
"120073435943838","3","-0.32913867","1.1412064","9.591583","lay down","1"
"120073455846234","3","-0.42974877","1.0525737","9.62512","lay down","1"
"120073475757224","3","-0.5279634","1.1651611","9.780826","lay down","1"
"120073495661703","3","-0.5135905","1.2034888","9.833527","lay down","1"
"120073515572745","3","-0.46807644","1.1603702","9.639493","lay down","1"
"120073535478943","3","-0.44651714","1.1555792","9.562838","lay down","1"
"120073555390036","3","-0.47526285","1.2106752","9.6562605","lay down","1"
"120073575310401","3","-0.46089","1.1699522","9.713753","lay down","1"
"120073595221443","3","-0.44651714","1.1651611","9.749685","lay down","1"
"120073615103630","3","-0.36986184","1.1364155","9.668239","lay down","1"
"120073635014307","3","-0.4033985","1.2106752","9.644284","lay down","1"
"120073654924984","3","-0.44891262","1.2585849","9.680216","lay down","1"
"120073674835661","3","-0.35548896","1.1986979","9.665843","lay down","1"
"120073694750557","3","-0.38183922","1.1459974","9.596374","lay down","1"
"120073714661286","3","-0.5734775","1.1771386","9.658657","lay down","1"
"120073734563057","3","-0.6094097","1.2561893","9.828736","lay down","1"
"120073754473786","3","-0.50879955","1.2537938","9.814363","lay down","1"
"120073774392328","3","-0.4393307","1.1148561","9.550859","lay down","1"
"120073794303005","3","-0.42974877","1.1531837","9.567629","lay down","1"
"120073814197276","3","-0.46568096","1.2633758","9.780826","lay down","1"
"120073834107953","3","-0.47765836","1.2921215","9.72573","lay down","1"
"120073854044672","3","-0.54473174","1.3615904","9.632307","lay down","1"
"120073873955401","3","-0.61420065","1.344822","9.730521","lay down","1"
"120073893851703","3","-0.5854549","1.3064944","9.891018","lay down","1"
"120073913762380","3","-0.515986","1.2298391","9.795198","lay down","1"
"120073933658213","3","-0.56868654","1.1220425","9.622725","lay down","1"
"120073953568891","3","-0.49682218","1.0597601","9.495764","lay down","1"
"120073973509724","3","-0.41537592","1.0358053","9.75208","lay down","1"
"120073993420453","3","-0.47047192","1.0238279","9.898205","lay down","1"
"120074013296651","3","-0.520777","1.0525737","9.541278","lay down","1"
"120074033207328","3","-0.45609906","1.1004833","9.483787","lay down","1"
"120074053144932","3","-0.4393307","1.1076697","9.77364","lay down","1"
"120074073055661","3","-0.47765836","1.0501782","9.761662","lay down","1"
"120074092966182","3","-0.5255679","1.0980878","9.627516","lay down","1"
"120074112876911","3","-0.5255679","1.2250481","9.593979","lay down","1"
"120074132783370","3","-0.43693522","1.2466074","9.663447","lay down","1"
"120074152694099","3","-0.50879955","1.1915114","9.644284","lay down","1"
"120074172594463","3","-0.59264135","1.1939069","9.783222","lay down","1"
"120074192505193","3","-0.571082","1.2513983","9.780826","lay down","1"
"120074212428526","3","-0.53275436","1.2729577","9.65147","lay down","1"
"120074232339255","3","-0.5183815","1.2274436","9.605956","lay down","1"
"120074252242849","3","-0.4824493","1.2226527","9.6562605","lay down","1"
"120074272153526","3","-0.4273533","1.2274436","9.704171","lay down","1"
"120074292060088","3","-0.405794","1.2082798","9.641888","lay down","1"
"120074311970766","3","-0.42495784","1.1795341","9.637098","lay down","1"
"120074331887536","3","-0.47047192","1.1795341","9.7353115","lay down","1"
"120074351798213","3","-0.515986","1.1915114","9.754476","lay down","1"
"120074371714984","3","-0.5734775","1.1771386","9.644284","lay down","1"
"120074391625713","3","-0.5591046","1.1723477","9.613143","lay down","1"
"120074411547797","3","-0.47526285","1.129229","9.608352","lay down","1"
"120074431458526","3","-0.4393307","1.0885059","9.72573","lay down","1"
"120074451299880","3","-0.44651714","1.0909013","9.864668","lay down","1"
"120074471210557","3","-0.48724028","1.0669465","9.821548","lay down","1"
"120074491194516","3","-0.5495227","1.1100652","9.675425","lay down","1"
"120074511105193","3","-0.5279634","1.1651611","9.675425","lay down","1"
"120074530993786","3","-0.48724028","1.13402","9.718544","lay down","1"
"120074550904463","3","-0.46328548","1.1076697","9.665843","lay down","1"
"120074570796391","3","-0.4393307","1.129229","9.658657","lay down","1"
"120074590707068","3","-0.43453974","1.1364155","9.641888","lay down","1"
"120074610640036","3","-0.44651714","1.129229","9.668239","lay down","1"
"120074630550713","3","-0.47526285","1.124438","9.680216","lay down","1"
"120074650464932","3","-0.50400865","1.1507883","9.7089615","lay down","1"
"120074670375609","3","-0.5279634","1.1627656","9.720939","lay down","1"
"120074690308422","3","-0.5615001","1.1795341","9.7089615","lay down","1"
"120074710219203","3","-0.5423363","1.1723477","9.72573","lay down","1"
"120074730117016","3","-0.52317244","1.1867205","9.711357","lay down","1"
"120074750027693","3","-0.5135905","1.184325","9.687403","lay down","1"
"120074769936234","3","-0.515986","1.1675566","9.682611","lay down","1"
"120074789847016","3","-0.49921766","1.1627656","9.689797","lay down","1"
"120074809767276","3","-0.50400865","1.1531837","9.67303","lay down","1"
"120074829678005","3","-0.49682218","1.1627656","9.649075","lay down","1"
"120074849591286","3","-0.48484477","1.1603702","9.634702","lay down","1"
"120074869501963","3","-0.48724028","1.1531837","9.658657","lay down","1"
"120074889415974","3","-0.48724028","1.1364155","9.67303","lay down","1"
"120074909326703","3","-0.48724028","1.13402","9.694589","lay down","1"
"120074929250245","3","-0.49203122","1.1388109","9.711357","lay down","1"
"120074949160922","3","-0.4824493","1.1364155","9.704171","lay down","1"
"120074969085349","3","-0.48484477","1.1388109","9.704171","lay down","1"
"120074988996078","3","-0.4824493","1.1436019","9.682611","lay down","1"
"120075008892484","3","-0.48484477","1.1627656","9.696984","lay down","1"
"120075028803213","3","-0.49442673","1.1699522","9.701775","lay down","1"
"120075048742693","3","-0.49203122","1.1459974","9.685007","lay down","1"
"120075068576078","3","-0.48484477","1.1579747","9.704171","lay down","1"
"120075088572797","3","-0.4728674","1.174743","9.685007","lay down","1"
"120075108483526","3","-0.47526285","1.1627656","9.680216","lay down","1"
"120075128388422","3","-0.49203122","1.1795341","9.689797","lay down","1"
"120075148299099","3","-0.50161314","1.1723477","9.687403","lay down","1"
"120075168257224","3","-0.49682218","1.1627656","9.689797","lay down","1"
"120075188167953","3","-0.5064041","1.1531837","9.711357","lay down","1"
"120075208036182","3","-0.50400865","1.1555792","9.716147","lay down","1"
"120075227946911","3","-0.49442673","1.1507883","9.706566","lay down","1"
"120075247884672","3","-0.5064041","1.1531837","9.689797","lay down","1"
"120075267795401","3","-0.49682218","1.1555792","9.680216","lay down","1"
"120075287736443","3","-0.49921766","1.1436019","9.696984","lay down","1"
"120075307647172","3","-0.5064041","1.1483928","9.696984","lay down","1"
"120075327555661","3","-0.49442673","1.1555792","9.680216","lay down","1"
"120075347466391","3","-0.50161314","1.1603702","9.687403","roll side","1"
"120075367372797","3","-0.48963574","1.1675566","9.687403","roll side","1"
"120075387283526","3","-0.49442673","1.1555792","9.692194","roll side","1"
"120075407192068","3","-0.50161314","1.1579747","9.687403","roll side","1"
"120075427102797","3","-0.49442673","1.1555792","9.685007","roll side","1"
"120075447000870","3","-0.49921766","1.1627656","9.7089615","roll side","1"
"120075466911599","3","-0.47526285","1.1555792","9.696984","roll side","1"
"120075486833057","3","-0.47526285","1.1579747","9.682611","roll side","1"
"120075506743786","3","-0.46807644","1.1699522","9.67303","roll side","1"
"120075526649463","3","-0.47526285","1.1699522","9.677821","roll side","1"
"120075546560193","3","-0.50161314","1.1579747","9.692194","roll side","1"
"120075566499099","3","-0.48724028","1.1531837","9.680216","roll side","1"
"120075586409828","3","-0.49442673","1.1459974","9.696984","roll side","1"
"120075606312432","3","-0.5064041","1.1436019","9.718544","roll side","1"
"120075626223161","3","-0.50400865","1.1364155","9.675425","roll side","1"
"120075646143995","3","-0.48724028","1.1436019","9.685007","roll side","1"
"120075666054724","3","-0.48724028","1.1459974","9.69938","roll side","1"
"120075685955713","3","-0.49203122","1.1531837","9.69938","roll side","1"
"120075705866443","3","-0.49921766","1.1579747","9.668239","roll side","1"
"120075725801078","3","-0.52317244","1.1675566","9.675425","roll side","1"
"120075745711807","3","-0.50879955","1.1627656","9.696984","roll side","1"
"120075765622380","3","-0.4824493","1.1675566","9.69938","roll side","1"
"120075785533109","3","-0.48005384","1.1603702","9.689797","roll side","1"
"120075805455818","3","-0.49682218","1.1579747","9.67303","roll side","1"
"120075825366547","3","-0.49203122","1.1507883","9.67303","roll side","1"
"120075845273713","3","-0.47765836","1.1483928","9.716147","roll side","1"
"120075865184390","3","-0.47765836","1.1531837","9.687403","roll side","1"
"120075885070067","3","-0.48724028","1.1699522","9.67303","roll side","1"
"120075904980796","3","-0.50161314","1.1603702","9.682611","roll side","1"
"120075924910952","3","-0.49442673","1.1436019","9.696984","roll side","1"
"120075944821681","3","-0.46328548","1.1412064","9.701775","roll side","1"
"120075964729650","3","-0.50400865","1.1436019","9.689797","roll side","1"
"120075984640379","3","-0.52317244","1.1364155","9.706566","roll side","1"
"120076004549754","3","-0.4393307","1.1220425","9.694589","roll side","1"
"120076024460483","3","-0.45130807","1.1555792","9.661052","roll side","1"
"120076044387775","3","-0.48963574","1.1675566","9.682611","roll side","1"
"120076064298452","3","-0.51119506","1.0813195","9.706566","roll side","1"
"120076084205483","3","-0.5064041","1.0334098","9.711357","roll side","1"
"120076104116629","3","-0.45609906","1.1388109","9.706566","roll side","1"
"120076123995744","3","-0.43214428","1.2490029","9.685007","roll side","1"
"120076143906890","3","-0.4824493","1.2537938","9.661052","roll side","1"
"120076163798244","3","-0.57826847","1.1891159","9.62512","roll side","1"
"120076183709338","3","-0.6237825","1.2274436","9.711357","roll side","1"
"120076203651317","3","-0.5064041","1.2513983","9.740103","roll side","1"
"120076223562410","3","-0.39860755","1.1316245","9.663447","roll side","1"
"120076243487306","3","-0.42974877","1.129229","9.622725","roll side","1"
"120076263398400","3","-0.49203122","1.1891159","9.704171","roll side","1"
"120076283303244","3","-0.46328548","1.1963024","9.670634","roll side","1"
"120076303214338","3","-0.27404267","1.1076697","9.613143","roll side","1"
"120076323120483","3","-0.30039293","0.91363597","9.737708","roll side","1"
"120076343031629","3","-0.63575995","1.0813195","9.893414","roll side","1"
"120076362874181","3","-0.630969","1.2202572","9.694589","roll side","1"
"120076382785327","3","-0.47047192","1.1579747","9.502951","roll side","1"
"120076402761160","3","-0.41537592","1.2154663","9.795198","roll side","1"
"120076422672306","3","-0.55431366","1.3424265","9.792804","roll side","1"
"120076442559598","3","-0.6692966","1.3112854","9.565233","roll side","1"
"120076462459806","3","-0.5615001","1.184325","9.637098","roll side","1"
"120076482370900","3","-0.36507085","1.1364155","9.744894","roll side","1"
"120076502302983","3","-0.33872062","1.1555792","9.675425","roll side","1"
"120076522214129","3","-0.32434773","1.1436019","9.546069","roll side","1"
"120076542121577","3","-0.24290144","1.2058843","9.589188","roll side","1"
"120076562032671","3","-0.13031399","1.0909013","9.711357","roll side","1"
"120076581962931","3","-0.15187329","0.79865295","9.62512","roll side","1"
"120076601874077","3","-0.40818948","0.90165854","9.510137","roll side","1"
"120076621778140","3","-0.8896806","1.4142909","9.562838","roll side","1"
"120076641689285","3","-1.411895","1.6274885","9.720939","roll side","1"
"120076661590379","3","-1.4478271","1.3208672","10.061097","roll side","1"
"120076681501525","3","-0.8321892","1.1771386","10.032351","roll side","1"
"120076701404963","3","-0.25248337","1.2106752","9.524509","roll side","1"
"120076721316056","3","-0.12073207","1.2058843","9.4239","roll side","1"
"120076741227358","3","-0.180619","1.2322346","9.670634","roll side","1"
"120076761138452","3","-0.28841555","1.184325","9.761662","roll side","1"
"120076781040327","3","-0.36986184","1.1483928","9.69938","roll side","1"
"120076800951473","3","-0.5183815","1.2106752","9.62991","roll side","1"
"120076820849442","3","-0.5567092","1.1819295","9.622725","roll side","1"
"120076840760588","3","-0.5183815","1.1364155","9.689797","roll side","1"
"120076860675119","3","-0.51119506","1.1004833","9.641888","roll side","1"
"120076880586265","3","-0.64294636","1.2777487","9.60356","roll side","1"
"120076900512879","3","-0.6597147","1.3999181","9.778431","roll side","1"
"120076920424025","3","-0.5303589","1.2058843","9.764058","roll side","1"
"120076940329650","3","-0.52317244","1.0477828","9.586792","roll side","1"
"120076960240796","3","-0.6070142","1.0310143","9.62512","roll side","1"
"120076980150952","3","-0.6740876","1.0980878","9.718544","roll side","1"
"120077000062046","3","-0.80583894","1.1220425","9.670634","roll side","1"
"120077019976890","3","-0.85853946","1.2058843","9.661052","roll side","1"
"120077039887983","3","-0.82021177","1.2106752","9.759267","roll side","1"
"120077059788088","3","-0.6740876","1.1555792","9.795198","roll side","1"
"120077079699129","3","-0.6022232","1.1364155","9.641888","roll side","1"
"120077099589858","3","-0.6189916","1.1699522","9.649075","roll side","1"
"120077119501004","3","-0.6980424","1.2442119","9.720939","roll side","1"
"120077139435483","3","-0.7076243","1.2681668","9.634702","roll side","1"
"120077159346577","3","-0.7483474","1.2490029","9.574815","roll side","1"
"120077179252046","3","-0.79146606","1.2322346","9.622725","roll side","1"
"120077199163140","3","-0.80344343","1.2418165","9.737708","roll side","1"
"120077219060223","3","-0.76751125","1.2849351","9.783222","roll side","1"
"120077238971369","3","-0.7627203","1.2442119","9.706566","roll side","1"
"120077258874702","3","-0.741161","1.1963024","9.637098","roll side","1"
"120077278785796","3","-0.76751125","1.2106752","9.74729","roll side","1"
"120077298727410","3","-0.78188413","1.2226527","9.766453","roll side","1"
"120077318638504","3","-0.82739824","1.2130708","9.596374","roll side","1"
"120077338547671","3","-0.906449","1.239421","9.586792","roll side","1"
"120077358458817","3","-0.8537485","1.2561893","9.680216","roll side","1"
"120077378355327","3","-0.8010479","1.2729577","9.641888","roll side","1"
"120077398266473","3","-0.8226073","1.2154663","9.60356","roll side","1"
"120077418176629","3","-0.79865247","1.1986979","9.694589","roll side","1"
"120077438087775","3","-0.8010479","1.2298391","9.706566","roll side","1"
"120077457949910","3","-0.7794886","1.2585849","9.60356","roll side","1"
"120077477861004","3","-0.7579293","1.2154663","9.639493","roll side","1"
"120077497812515","3","-0.7291836","1.2154663","9.677821","roll side","1"
"120077517723504","3","-0.7794886","1.1963024","9.69938","roll side","1"
"120077537572098","3","-0.851353","1.1459974","9.72573","roll side","1"
"120077557483088","3","-0.9184264","1.0765285","9.740103","roll side","1"
"120077577441160","3","-0.93040377","1.0909013","9.74729","roll side","1"
"120077597352150","3","-0.93040377","1.2130708","9.694589","roll side","1"
"120077617275535","3","-0.93759024","1.3088899","9.661052","roll side","1"
"120077637186525","3","-0.87051684","1.294517","9.617934","roll side","1"
"120077657095640","3","-0.7794886","1.1867205","9.6562605","roll side","1"
"120077677006629","3","-0.7794886","1.174743","9.680216","roll side","1"
"120077696906004","3","-0.8010479","1.2274436","9.704171","roll side","1"
"120077716817046","3","-0.8441666","1.2873305","9.696984","roll side","1"
"120077736706681","3","-0.89447165","1.299308","9.658657","roll side","1"
"120077756617671","3","-0.8824942","1.2801441","9.634702","roll side","1"
"120077776541265","3","-0.8321892","1.2370255","9.653866","roll side","1"
"120077796452306","3","-0.8082344","1.2130708","9.663447","roll side","1"
"120077816341733","3","-0.81302536","1.2010933","9.663447","roll side","1"
"120077836252775","3","-0.81062984","1.2226527","9.613143","roll side","1"
"120077856178713","3","-0.79865247","1.2250481","9.6562605","roll side","1"
"120077876089754","3","-0.796257","1.2178617","9.646679","roll side","1"
"120077895985692","3","-0.83458465","1.2034888","9.615538","roll side","1"
"120077915896681","3","-0.83458465","1.2274436","9.680216","roll side","1"
"120077935817723","3","-0.82739824","1.2274436","9.668239","roll side","1"
"120077955728713","3","-0.8178163","1.2082798","9.663447","roll side","1"
"120077975655223","3","-0.8178163","1.2130708","9.653866","roll side","1"
"120077995566265","3","-0.84177107","1.2274436","9.685007","roll side","1"
"120078015452046","3","-0.8537485","1.2274436","9.682611","roll side","1"
"120078035363035","3","-0.8441666","1.2082798","9.685007","roll side","1"
"120078055297879","3","-0.851353","1.2178617","9.668239","roll side","1"
"120078075208817","3","-0.8537485","1.2346301","9.680216","roll side","1"
"120078095085952","3","-0.8369801","1.2250481","9.65147","roll side","1"
"120078114996994","3","-0.8321892","1.2226527","9.663447","roll side","1"
"120078134924494","3","-0.82500273","1.2322346","9.62991","roll side","1"
"120078154835535","3","-0.82500273","1.2370255","9.649075","roll side","1"
"120078174783296","3","-0.8297937","1.2274436","9.665843","roll side","1"
"120078194694338","3","-0.8226073","1.2226527","9.646679","roll side","1"
"120078214607306","3","-0.84177107","1.2298391","9.67303","roll side","1"
"120078234518348","3","-0.84177107","1.2226527","9.663447","roll side","1"
"120078254411108","3","-0.8154208","1.239421","9.6562605","roll side","1"
"120078274322098","3","-0.82500273","1.2298391","9.665843","roll side","1"
"120078294268713","3","-0.84177107","1.2202572","9.661052","roll side","1"
"120078314179754","3","-0.8369801","1.2154663","9.675425","roll side","1"
"120078334061421","3","-0.851353","1.239421","9.668239","roll side","1"
"120078353972410","3","-0.84177107","1.2346301","9.704171","roll side","1"
"120078373901421","3","-0.8178163","1.2370255","9.687403","roll side","1"
"120078393812463","3","-0.846562","1.2226527","9.661052","roll side","1"
"120078413709181","3","-0.8393756","1.2154663","9.668239","roll side","1"
"120078433620223","3","-0.82500273","1.2274436","9.6562605","roll side","1"
"120078453536160","3","-0.83458465","1.2226527","9.65147","roll side","1"
"120078473447150","3","-0.83458465","1.2513983","9.639493","roll side","1"
"120078493385483","3","-0.8393756","1.2609802","9.649075","roll side","1"
"120078513296473","3","-0.82739824","1.2442119","9.639493","roll side","1"
"120078533215744","3","-0.8178163","1.2202572","9.65147","roll side","1"
"120078553126733","3","-0.8321892","1.2250481","9.65147","roll side","1"
"120078573031160","3","-0.8321892","1.2202572","9.668239","roll side","1"
"120078592942150","3","-0.84895754","1.2250481","9.670634","roll side","1"
"120078612836890","3","-0.851353","1.239421","9.675425","roll side","1"
"120078632747879","3","-0.8321892","1.2418165","9.665843","roll side","1"
"120078652652202","3","-0.8393756","1.1986979","9.670634","roll side","1"
"120078672563244","3","-0.84177107","1.2178617","9.668239","roll side","1"
"120078692497150","3","-0.846562","1.2298391","9.653866","roll side","1"
"120078712408192","3","-0.8369801","1.239421","9.670634","roll side","1"
"120078732316473","3","-0.8393756","1.2250481","9.622725","roll side","1"
"120078752227463","3","-0.84177107","1.2250481","9.658657","roll side","1"
"120078772161890","3","-0.82500273","1.2370255","9.665843","roll side","1"
"120078792072879","3","-0.8321892","1.2633758","9.670634","roll side","1"
"120078811972879","3","-0.83458465","1.2633758","9.7089615","roll side","1"
"120078831883921","3","-0.83458465","1.2202572","9.668239","roll side","1"
"120078851818608","3","-0.8369801","1.1963024","9.665843","roll side","1"
"120078871729598","3","-0.85614395","1.2034888","9.696984","roll side","1"
"120078891642410","3","-0.8441666","1.2442119","9.67303","roll side","1"
"120078911553400","3","-0.846562","1.2346301","9.668239","roll side","1"
"120078931429754","3","-0.846562","1.2178617","9.649075","roll side","1"
"120078951340744","3","-0.846562","1.2082798","9.6562605","roll side","1"
"120078971270223","3","-0.84177107","1.2274436","9.665843","roll side","1"
"120078991181160","3","-0.8393756","1.2154663","9.668239","roll side","1"
"120079011089702","3","-0.84177107","1.2250481","9.663447","roll side","1"
"120079031000640","3","-0.8441666","1.2346301","9.680216","roll side","1"
"120079050920640","3","-0.84177107","1.2442119","9.663447","roll side","1"
"120079070831629","3","-0.84177107","1.2298391","9.663447","roll side","1"
"120079090741994","3","-0.8321892","1.2298391","9.639493","roll side","1"
"120079110653348","3","-0.8321892","1.2346301","9.644284","roll side","1"
"120079130574181","3","-0.8393756","1.2298391","9.627516","roll side","1"
"120079150485483","3","-0.8537485","1.2442119","9.668239","roll side","1"
"120079170398869","3","-0.8609349","1.2418165","9.6562605","roll side","1"
"120079190310171","3","-0.851353","1.2298391","9.668239","roll side","1"
"120079210215692","3","-0.85614395","1.2370255","9.677821","roll side","1"
"120079230126994","3","-0.8441666","1.2346301","9.687403","roll side","1"
"120079250038296","3","-0.8609349","1.2226527","9.663447","roll side","1"
"120079269949598","3","-0.85853946","1.2082798","9.646679","roll side","1"
"120079289871213","3","-0.8226073","1.2178617","9.658657","roll side","1"
"120079309782463","3","-0.83458465","1.2178617","9.668239","roll side","1"
"120079329693088","3","-0.85853946","1.2490029","9.637098","roll side","1"
"120079349604338","3","-0.8393756","1.2561893","9.67303","roll back","1"
"120079369528192","3","-0.82500273","1.2418165","9.653866","roll back","1"
"120079389439494","3","-0.8441666","1.2250481","9.682611","roll back","1"
"120079409352463","3","-0.8441666","1.2274436","9.675425","roll back","1"
"120079429263765","3","-0.851353","1.2226527","9.677821","roll back","1"
"120079449146317","3","-0.851353","1.2130708","9.677821","roll back","1"
"120079469057619","3","-0.846562","1.2274436","9.653866","roll back","1"
"120079488955952","3","-0.851353","1.2490029","9.6562605","roll back","1"
"120079508867254","3","-0.84895754","1.239421","9.687403","roll back","1"
"120079528783244","3","-0.8369801","1.2154663","9.653866","roll back","1"
"120079548694546","3","-0.846562","1.2082798","9.634702","roll back","1"
"120079568610171","3","-0.85853946","1.2442119","9.665843","roll back","1"
"120079588521525","3","-0.84895754","1.2418165","9.65147","roll back","1"
"120079608462410","3","-0.85614395","1.2418165","9.646679","roll back","1"
"120079628373713","3","-0.8753078","1.2490029","9.658657","roll back","1"
"120079648290588","3","-0.851353","1.2274436","9.653866","roll back","1"
"120079668201838","3","-0.8321892","1.2178617","9.62991","roll back","1"
"120079688107098","3","-0.8537485","1.2106752","9.644284","roll back","1"
"120079708018400","3","-0.8393756","1.2202572","9.692194","roll back","1"
"120079727914494","3","-0.91124","1.2130708","9.670634","roll back","1"
"120079747825744","3","-0.91603094","1.2082798","9.634702","roll back","1"
"120079767718765","3","-0.84895754","1.2370255","9.680216","roll back","1"
"120079787630015","3","-0.83458465","1.2490029","9.687403","roll back","1"
"120079807542931","3","-0.8321892","1.2633758","9.646679","roll back","1"
"120079827454181","3","-0.8369801","1.2777487","9.677821","roll back","1"
"120079847372098","3","-0.82739824","1.2513983","9.668239","roll back","1"
"120079867283400","3","-0.82500273","1.2058843","9.62991","roll back","1"
"120079887184754","3","-0.8753078","1.2106752","9.622725","roll back","1"
"120079907096056","3","-0.94477665","1.294517","9.661052","roll back","1"
"120079927009442","3","-0.94477665","1.3400311","9.617934","roll back","1"
"120079946920692","3","-0.851353","1.3256582","9.634702","roll back","1"
"120079966823817","3","-0.76751125","1.2705623","9.742498","roll back","1"
"120079986735067","3","-0.6956469","1.2058843","9.783222","roll back","1"
"120080006646160","3","-0.76990676","1.2034888","9.687403","roll back","1"
"120080026557463","3","-0.8537485","1.1986979","9.749685","roll back","1"
"120080046479338","3","-0.80344343","1.1867205","9.723335","roll back","1"
"120080066390640","3","-0.7723022","1.1723477","9.62991","roll back","1"
"120080086293921","3","-0.85614395","1.1076697","9.67303","roll back","1"
"120080106205171","3","-0.91363543","0.9423816","9.6562605","roll back","1"
"120080126121942","3","-0.7770932","0.95914996","9.553256","roll back","1"
"120080146032827","3","-0.79146606","0.9208224","9.586792","roll back","1"
"120080165944129","3","-0.93519473","1.0334098","9.665843","roll back","1"
"120080185821681","3","-1.2633753","1.4502231","9.634702","roll back","1"
"120080205732983","3","-1.2633753","1.6226976","9.658657","roll back","1"
"120080225702463","3","-0.78907055","1.6706071","9.924555","roll back","1"
"120080245613713","3","-0.6956469","1.4741778","9.749685","roll back","1"
"120080265537879","3","-0.8657259","1.0909013","9.737708","roll back","1"
"120080285449129","3","-0.7794886","0.8800993","9.778431","roll back","1"
"120080305354598","3","-0.7794886","1.0286188","9.548465","roll back","1"
"120080325265744","3","-0.77469766","1.2777487","9.558047","roll back","1"
"120080345183140","3","-0.7076243","1.2777487","9.713753","roll back","1"
"120080365094338","3","-0.6597147","1.2322346","9.601165","roll back","1"
"120080384979442","3","-0.72199714","1.1939069","9.665843","roll back","1"
"120080404890744","3","-0.7866751","1.1531837","9.742498","roll back","1"
"120080424820535","3","-0.77469766","1.2681668","9.57721","roll back","1"
"120080444731838","3","-0.7124152","1.3088899","9.57242","roll back","1"
"120080464631525","3","-0.7052288","1.2346301","9.843109","roll back","1"
"120080484542775","3","-0.7770932","1.1100652","9.687403","roll back","1"
"120080504473608","3","-0.6453419","1.0094551","9.553256","roll back","1"
"120080524384858","3","-0.41058496","0.9783139","9.701775","roll back","1"
"120080544306108","3","-0.44172618","1.1148561","9.77364","roll back","1"
"120080564217410","3","-0.48963574","1.078924","9.550859","roll back","1"
"120080584098921","3","-0.42974877","1.014246","9.495764","roll back","1"
"120080604010119","3","-0.5064041","1.129229","9.694589","roll back","1"
"120080623924442","3","-0.64294636","1.2226527","9.869459","roll back","1"
"120080643835744","3","-0.74595195","1.304099","9.795198","roll back","1"
"120080663746421","3","-0.77469766","1.3256582","9.680216","roll back","1"
"120080683657671","3","-0.72439265","1.2705623","9.771244","roll back","1"
"120080703576056","3","-0.6908559","1.1939069","9.790408","roll back","1"
"120080723487306","3","-0.7124152","1.1220425","9.682611","roll back","1"
"120080743390848","3","-0.67887855","1.1555792","9.685007","roll back","1"
"120080763302150","3","-0.57587296","1.2442119","9.72573","roll back","1"
"120080783225483","3","-0.59024584","1.2633758","9.665843","roll back","1"
"120080803136733","3","-0.6165961","1.2274436","9.59877","roll back","1"
"120080823056421","3","-0.59982777","1.2202572","9.622725","roll back","1"
"120080842967723","3","-0.5854549","1.2178617","9.646679","roll back","1"
"120080862881213","3","-0.48005384","1.1963024","9.615538","roll back","1"
"120080882792410","3","-0.40818948","1.1220425","9.593979","roll back","1"
"120080902704702","3","-0.40100306","1.0453873","9.596374","roll back","1"
"120080922615952","3","-0.42016685","1.0717375","9.579606","roll back","1"
"120080942529858","3","-0.41298044","1.1627656","9.62512","roll back","1"
"120080962441056","3","-0.46807644","1.1939069","9.685007","roll back","1"
"120080982371890","3","-0.59024584","1.1915114","9.692194","roll back","1"
"120081002283192","3","-0.59982777","1.1579747","9.718544","roll back","1"
"120081022169754","3","-0.58305943","1.184325","9.7353115","roll back","1"
"120081042081004","3","-0.5734775","1.2921215","9.692194","roll back","1"
"120081062033296","3","-0.59982777","1.2777487","9.7353115","roll back","1"
"120081081944598","3","-0.59743226","1.1579747","9.811967","roll back","1"
"120081101860848","3","-0.53994083","1.1436019","9.617934","roll back","1"
"120081121772098","3","-0.42974877","1.1819295","9.610746","roll back","1"
"120081141655848","3","-0.35548896","1.1268334","9.718544","roll back","1"
"120081161567150","3","-0.4177714","1.119647","9.680216","roll back","1"
"120081181512046","3","-0.46568096","1.174743","9.7089615","roll back","1"
"120081201423713","3","-0.44891262","1.1603702","9.69938","roll back","1"
"120081221311056","3","-0.42256233","1.1316245","9.665843","roll back","1"
"120081241222619","3","-0.41058496","1.1364155","9.692194","roll back","1"
"120081261135067","3","-0.40818948","1.1507883","9.661052","roll back","1"
"120081281046629","3","-0.4177714","1.1316245","9.593979","roll back","1"
"120081300961265","3","-0.5638956","1.1220425","9.670634","roll back","1"
"120081320872879","3","-0.7339746","1.2010933","9.720939","roll back","1"
"120081340771629","3","-0.6405509","1.1986979","9.905391","roll back","1"
"120081360683244","3","-0.2836246","1.1986979","9.680216","roll back","1"
"120081380609598","3","-0.40100306","1.124438","9.459832","roll back","1"
"120081400521213","3","-0.5734775","1.1699522","9.9005995","roll back","1"
"120081420424858","3","-0.6237825","1.2106752","9.807176","roll back","1"
"120081440336473","3","-0.5423363","1.2058843","9.615538","roll back","1"
"120081460277358","3","-0.48724028","1.1651611","9.680216","roll back","1"
"120081480188973","3","-0.47526285","1.1220425","9.65147","roll back","1"
"120081500106265","3","-0.4824493","1.1459974","9.689797","roll back","1"
"120081520017931","3","-0.47765836","1.1627656","9.665843","roll back","1"
"120081539897775","3","-0.48005384","1.1603702","9.661052","roll back","1"
"120081559809338","3","-0.53275436","1.1507883","9.711357","roll back","1"
"120081579690848","3","-0.5950368","1.1986979","9.754476","roll back","1"
"120081599602463","3","-0.49203122","1.174743","9.69938","roll back","1"
"120081619566681","3","-0.45370355","1.1627656","9.610746","roll back","1"
"120081639478348","3","-0.48724028","1.1507883","9.658657","roll back","1"
"120081659397931","3","-0.5279634","1.1651611","9.778431","roll back","1"
"120081679309546","3","-0.5135905","1.1795341","9.694589","roll back","1"
"120081699208921","3","-0.51119506","1.1891159","9.670634","roll back","1"
"120081719120588","3","-0.515986","1.184325","9.682611","roll back","1"
"120081739040119","3","-0.49682218","1.1675566","9.704171","roll back","1"
"120081758951733","3","-0.49682218","1.174743","9.692194","roll back","1"
"120081778831681","3","-0.5279634","1.1675566","9.67303","roll back","1"
"120081798743296","3","-0.50879955","1.1579747","9.694589","roll back","1"
"120081818659910","3","-0.4584945","1.1531837","9.680216","roll back","1"
"120081838571525","3","-0.48005384","1.1603702","9.689797","roll back","1"
"120081858492931","3","-0.515986","1.1699522","9.668239","roll back","1"
"120081878404546","3","-0.515986","1.1507883","9.694589","roll back","1"
"120081898305692","3","-0.49203122","1.1579747","9.720939","roll back","1"
"120081918217358","3","-0.49442673","1.1651611","9.692194","roll back","1"
"120081938140015","3","-0.49682218","1.1675566","9.685007","roll back","1"
"120081958051629","3","-0.5183815","1.1603702","9.680216","roll back","1"
"120081977949806","3","-0.52317244","1.1771386","9.665843","roll back","1"
"120081997863140","3","-0.49921766","1.1675566","9.67303","roll back","1"
"120082017774702","3","-0.48005384","1.184325","9.687403","roll back","1"
"120082037681265","3","-0.4728674","1.1699522","9.661052","roll back","1"
"120082057592879","3","-0.47526285","1.1627656","9.675425","roll back","1"
"120082077510796","3","-0.49203122","1.1723477","9.711357","roll back","1"
"120082097422358","3","-0.53275436","1.1651611","9.6562605","roll back","1"
"120082117359338","3","-0.520777","1.1388109","9.685007","roll back","1"
"120082137271004","3","-0.5183815","1.1364155","9.704171","roll back","1"
"120082157156942","3","-0.520777","1.1555792","9.69938","roll back","1"
"120082177068556","3","-0.515986","1.174743","9.668239","roll back","1"
"120082196992046","3","-0.49682218","1.1627656","9.675425","roll back","1"
"120082216903660","3","-0.48724028","1.1627656","9.689797","roll back","1"
"120082236811681","3","-0.48963574","1.1795341","9.701775","roll back","1"
"120082256723244","3","-0.5064041","1.1699522","9.687403","roll back","1"
"120082276649598","3","-0.5255679","1.1627656","9.677821","roll back","1"
"120082296561213","3","-0.50879955","1.1699522","9.711357","roll back","1"
"120082316451629","3","-0.49682218","1.1819295","9.675425","roll back","1"
"120082336363296","3","-0.50161314","1.1651611","9.682611","roll back","1"
"120082356281004","3","-0.53275436","1.1579747","9.723335","roll back","1"
"120082376192619","3","-0.5064041","1.1627656","9.704171","roll back","1"
"120082396104077","3","-0.50161314","1.1627656","9.685007","roll back","1"
"120082416015640","3","-0.49682218","1.1651611","9.687403","roll back","1"
"120082435927983","3","-0.51119506","1.1531837","9.680216","roll back","1"
"120082455839598","3","-0.50400865","1.1555792","9.680216","roll back","1"
"120082475768921","3","-0.5135905","1.1579747","9.692194","roll back","1"
"120082495680588","3","-0.50400865","1.1627656","9.696984","roll back","1"
"120082515611421","3","-0.50161314","1.1723477","9.701775","roll back","1"
"120082535523035","3","-0.52317244","1.1867205","9.67303","roll back","1"
"120082555435327","3","-0.515986","1.1723477","9.687403","roll back","1"
"120082575346942","3","-0.5064041","1.1699522","9.682611","roll back","1"
"120082595261369","3","-0.50879955","1.1891159","9.670634","roll back","1"
"120082615172983","3","-0.50879955","1.1675566","9.682611","roll back","1"
"120082635079181","3","-0.520777","1.1675566","9.696984","roll back","1"
"120082654990796","3","-0.49921766","1.1675566","9.692194","roll back","1"
"120082674909650","3","-0.50161314","1.1627656","9.677821","roll back","1"
"120082694821265","3","-0.48724028","1.1771386","9.694589","roll back","1"
"120082714733921","3","-0.47526285","1.1675566","9.704171","roll back","1"
"120082734645535","3","-0.5135905","1.1603702","9.687403","roll back","1"
"120082754508973","3","-0.5351498","1.1436019","9.677821","roll back","1"
"120082774420588","3","-0.5183815","1.1627656","9.720939","roll back","1"
"120082794349025","3","-0.49442673","1.1771386","9.69938","roll back","1"
"120082814260640","3","-0.5064041","1.1651611","9.653866","roll back","1"
"120082834205223","3","-0.520777","1.1579747","9.696984","roll back","1"
"120082854116890","3","-0.50400865","1.174743","9.718544","roll back","1"
"120082873998452","3","-0.51119506","1.1819295","9.663447","roll back","1"
"120082893910067","3","-0.52317244","1.1651611","9.689797","roll back","1"
"120082913828608","3","-0.5183815","1.1531837","9.69938","roll back","1"
"120082933740171","3","-0.50161314","1.1603702","9.680216","roll back","1"
"120082953651890","3","-0.5064041","1.1603702","9.675425","roll back","1"
"120082973563504","3","-0.51119506","1.1699522","9.680216","roll back","1"
"120082993480900","3","-0.49921766","1.1579747","9.663447","roll back","1"
"120083013392671","3","-0.48963574","1.1579747","9.677821","roll back","1"
"120083033286317","3","-0.50161314","1.1699522","9.704171","roll back","1"
"120083053198035","3","-0.51119506","1.174743","9.67303","roll back","1"
"120083073124806","3","-0.51119506","1.1603702","9.694589","roll back","1"
"120083093036577","3","-0.48724028","1.1627656","9.687403","roll back","1"
"120083112958452","3","-0.49203122","1.1675566","9.670634","roll back","1"
"120083132870223","3","-0.50879955","1.174743","9.694589","roll back","1"
"120083152772879","3","-0.515986","1.1675566","9.668239","roll back","1"
"120083172684650","3","-0.48484477","1.1699522","9.675425","roll back","1"
"120083192624650","3","-0.47765836","1.1531837","9.701775","roll back","1"
"120083212536421","3","-0.50879955","1.1651611","9.692194","roll back","1"
"120083232433140","3","-0.5064041","1.1651611","9.682611","roll back","1"
"120083252344910","3","-0.5064041","1.1483928","9.689797","roll back","1"
"120083272271942","3","-0.50161314","1.1651611","9.682611","roll back","1"
"120083292183713","3","-0.49682218","1.1723477","9.69938","roll back","1"
"120083312088348","3","-0.49442673","1.174743","9.663447","roll back","1"
"120083332000119","3","-0.50161314","1.1651611","9.685007","roll back","1"
"120083351940588","3","-0.48724028","1.1603702","9.689797","agitation","1"
"120083371852358","3","-0.49203122","1.1723477","9.711357","agitation","1"
"120083391756317","3","-0.50400865","1.1699522","9.696984","agitation","1"
"120083411668088","3","-0.50879955","1.1819295","9.685007","agitation","1"
"120083431556473","3","-0.5064041","1.1651611","9.692194","agitation","1"
"120083451468192","3","-0.51119506","1.1603702","9.675425","agitation","1"
"120083471407983","3","-0.49921766","1.1699522","9.692194","agitation","1"
"120083491319754","3","-0.50400865","1.1723477","9.689797","agitation","1"
"120083511232619","3","-0.515986","1.1651611","9.694589","agitation","1"
"120083531144390","3","-0.515986","1.1555792","9.701775","agitation","1"
"120083551059806","3","-0.50161314","1.1675566","9.661052","agitation","1"
"120083570971629","3","-0.50879955","1.1675566","9.6562605","agitation","1"
"120083590861629","3","-0.50879955","1.1651611","9.689797","agitation","1"
"120083610773400","3","-0.515986","1.1627656","9.675425","agitation","1"
"120083630686317","3","-0.5279634","1.1531837","9.689797","agitation","1"
"120083650598088","3","-0.50161314","1.1603702","9.701775","agitation","1"
"120083670479494","3","-0.49442673","1.1651611","9.7089615","agitation","1"
"120083690391265","3","-0.49921766","1.1819295","9.704171","agitation","1"
"120083710345431","3","-0.5064041","1.184325","9.663447","agitation","1"
"120083730257202","3","-0.515986","1.1699522","9.67303","agitation","1"
"120083750165535","3","-0.51119506","1.1531837","9.701775","agitation","1"
"120083770077306","3","-0.5064041","1.1220425","9.706566","agitation","1"
"120083789960379","3","-0.50400865","1.1436019","9.694589","agitation","1"
"120083809872098","3","-0.48724028","1.1579747","9.680216","agitation","1"
"120083829780900","3","-0.47526285","1.1627656","9.677821","agitation","1"
"120083849692671","3","-0.51119506","1.1579747","9.69938","agitation","1"
"120083869617515","3","-0.5255679","1.1627656","9.711357","agitation","1"
"120083889529338","3","-0.54473174","1.1627656","9.663447","agitation","1"
"120083909429494","3","-0.5255679","1.1531837","9.685007","agitation","1"
"120083929341265","3","-0.49203122","1.1459974","9.689797","agitation","1"
"120083949249910","3","-0.50161314","1.1268334","9.668239","agitation","1"
"120083969161681","3","-0.48963574","1.1771386","9.687403","agitation","1"
"120083989084390","3","-0.5375453","1.2442119","9.701775","agitation","1"
"120084008996160","3","-0.5638956","1.2154663","9.7089615","agitation","1"
"120084028926108","3","-0.5255679","1.1723477","9.682611","agitation","1"
"120084048838035","3","-0.5135905","1.1723477","9.723335","agitation","1"
"120084068732827","3","-0.49203122","1.1915114","9.668239","agitation","1"
"120084088644702","3","-0.5135905","1.2034888","9.67303","agitation","1"
"120084108560379","3","-0.5615001","1.2058843","9.687403","agitation","1"
"120084128472306","3","-0.520777","1.1651611","9.668239","agitation","1"
"120084148376838","3","-0.45370355","1.1172516","9.682611","agitation","1"
"120084168288713","3","-0.46328548","1.13402","9.670634","agitation","1"
"120084188241213","3","-0.4824493","1.1699522","9.716147","agitation","1"
"120084208153035","3","-0.5183815","1.1651611","9.689797","agitation","1"
"120084228027202","3","-0.5279634","1.1220425","9.658657","agitation","1"
"120084247939077","3","-0.5303589","1.1052742","9.696984","agitation","1"
"120084267870640","3","-0.52317244","1.1004833","9.732917","agitation","1"
"120084287782567","3","-0.50161314","1.1388109","9.677821","agitation","1"
"120084307717098","3","-0.49921766","1.1603702","9.677821","agitation","1"
"120084327628921","3","-0.50400865","1.1723477","9.677821","agitation","1"
"120084347536942","3","-0.5064041","1.1723477","9.675425","agitation","1"
"120084367448817","3","-0.5351498","1.1172516","9.742498","agitation","1"
"120084387354181","3","-0.5495227","1.1436019","9.718544","agitation","1"
"120084407266056","3","-0.52317244","1.1699522","9.696984","agitation","1"
"120084427143452","3","-0.5135905","1.174743","9.728126","agitation","1"
"120084447055379","3","-0.5183815","1.2106752","9.634702","agitation","1"
"120084467006785","3","-0.49921766","1.1891159","9.641888","agitation","1"
"120084486918660","3","-0.49203122","1.1699522","9.696984","agitation","1"
"120084506748973","3","-0.50400865","1.2490029","9.665843","agitation","1"
"120084526660848","3","-0.51119506","1.2561893","9.720939","agitation","1"
"120084546657306","3","-0.5255679","1.1651611","9.694589","agitation","1"
"120084566569181","3","-0.5303589","1.0597601","9.646679","agitation","1"
"120084586464754","3","-0.5519182","1.0166415","9.701775","agitation","1"
"120084606376577","3","-0.57826847","1.1388109","9.742498","agitation","1"
"120084626296525","3","-0.5375453","1.2753532","9.644284","agitation","1"
"120084646208400","3","-0.5135905","1.1459974","9.589188","agitation","1"
"120084666101525","3","-0.48963574","1.0573646","9.723335","agitation","1"
"120084686013452","3","-0.5591046","1.1076697","9.749685","agitation","1"
"120084705925848","3","-0.57587296","1.1699522","9.764058","agitation","1"
"120084725837723","3","-0.5519182","1.124438","9.687403","agitation","1"
"120084745777827","3","-0.53994083","1.1364155","9.632307","agitation","1"
"120084765689650","3","-0.5303589","1.1939069","9.668239","agitation","1"
"120084785564442","3","-0.4824493","1.3280537","9.692194","agitation","1"
"120084805476317","3","-0.47765836","1.3975226","9.687403","agitation","1"
"120084825398973","3","-0.50879955","1.2370255","9.646679","agitation","1"
"120084845310900","3","-0.5064041","1.0765285","9.687403","agitation","1"
"120084865225431","3","-0.5375453","1.0477828","9.711357","agitation","1"
"120084885137306","3","-0.56868654","1.1124606","9.696984","agitation","1"
"120084905068035","3","-0.515986","1.2010933","9.682611","agitation","1"
"120084924979910","3","-0.46328548","1.2130708","9.668239","agitation","1"
"120084944878713","3","-0.47047192","1.1915114","9.649075","agitation","1"
"120084964790588","3","-0.5255679","1.124438","9.69938","agitation","1"
"120084984719181","3","-0.57587296","1.1148561","9.69938","agitation","1"
"120085004631056","3","-0.58785033","1.1699522","9.704171","agitation","1"
"120085024555223","3","-0.5279634","1.1939069","9.764058","agitation","1"
"120085044467098","3","-0.4728674","1.1699522","9.713753","agitation","1"
"120085064347306","3","-0.48724028","1.1651611","9.627516","agitation","1"
"120085084259233","3","-0.50400865","1.119647","9.665843","agitation","1"
"120085104193088","3","-0.5255679","1.1531837","9.704171","agitation","1"
"120085124105015","3","-0.5495227","1.1531837","9.7089615","agitation","1"
"120085143996004","3","-0.5495227","1.174743","9.677821","agitation","1"
"120085163907931","3","-0.5064041","1.2082798","9.680216","agitation","1"
"120085183835223","3","-0.47526285","1.2226527","9.658657","agitation","1"
"120085203747150","3","-0.5567092","1.184325","9.637098","agitation","1"
"120085223672567","3","-0.61180514","1.1891159","9.69938","agitation","1"
"120085243584442","3","-0.4824493","1.2082798","9.685007","agitation","1"
"120085263493452","3","-0.46807644","1.1627656","9.692194","agitation","1"
"120085283405327","3","-0.47765836","1.074133","9.713753","agitation","1"
"120085303284858","3","-0.48005384","1.0453873","9.69938","agitation","1"
"120085323196785","3","-0.46328548","1.078924","9.7089615","agitation","1"
"120085343109233","3","-0.48484477","1.0837148","9.685007","agitation","1"
"120085363021160","3","-0.49203122","1.1507883","9.641888","agitation","1"
"120085382944806","3","-0.51119506","1.1316245","9.627516","agitation","1"
"120085402856733","3","-0.48724028","1.0621556","9.689797","agitation","1"
"120085422754077","3","-0.4393307","1.0932968","9.732917","agitation","1"
"120085442666004","3","-0.45370355","1.1819295","9.682611","agitation","1"
"120085462575744","3","-0.5255679","1.2226527","9.658657","agitation","1"
"120085482487567","3","-0.5950368","1.1771386","9.680216","agitation","1"
"120085502398817","3","-0.6669012","1.2034888","9.759267","agitation","1"
"120085522310744","3","-0.571082","1.2346301","9.730521","agitation","1"
"120085542220692","3","-0.43693522","1.1771386","9.696984","agitation","1"
"120085562132619","3","-0.40100306","1.069342","9.67303","agitation","1"
"120085582060900","3","-0.4584945","1.0717375","9.706566","agitation","1"
"120085601972775","3","-0.44651714","1.1771386","9.687403","agitation","1"
"120085621863504","3","-0.42495784","1.2178617","9.567629","agitation","1"
"120085641775431","3","-0.43693522","1.1627656","9.596374","agitation","1"
"120085661695848","3","-0.520777","1.1483928","9.680216","agitation","1"
"120085681607775","3","-0.5519182","1.2010933","9.713753","agitation","1"
"120085701516733","3","-0.4824493","1.1819295","9.641888","agitation","1"
"120085721428660","3","-0.44651714","1.1412064","9.646679","agitation","1"
"120085741375223","3","-0.46568096","1.119647","9.744894","agitation","1"
"120085761287098","3","-0.50161314","1.119647","9.7880125","agitation","1"
"120085781171213","3","-0.51119506","1.1459974","9.6562605","agitation","1"
"120085801083088","3","-0.5567092","1.1364155","9.637098","agitation","1"
"120085821020483","3","-0.5734775","1.1627656","9.771244","agitation","1"
"120085840932358","3","-0.57587296","1.1699522","9.749685","agitation","1"
"120085860844181","3","-0.53275436","1.1651611","9.67303","agitation","1"
"120085880756056","3","-0.5064041","1.1507883","9.670634","agitation","1"
"120085900634598","3","-0.4584945","1.1268334","9.675425","agitation","1"
"120085920546525","3","-0.41537592","1.1483928","9.67303","agitation","1"
"120085940497671","3","-0.42016685","1.1555792","9.67303","agitation","1"
"120085960409546","3","-0.45130807","1.1531837","9.677821","agitation","1"
"120085980297254","3","-0.47765836","1.1627656","9.677821","agitation","1"
"120086000209181","3","-0.48005384","1.1699522","9.696984","agitation","1"
"120086020111317","3","-0.48963574","1.1795341","9.668239","agitation","1"
"120086040023244","3","-0.5183815","1.1986979","9.670634","agitation","1"
"120086059939702","3","-0.54712725","1.1771386","9.701775","agitation","1"
"120086079851629","3","-0.5255679","1.1507883","9.706566","agitation","1"
"120086099759233","3","-0.5135905","1.1603702","9.69938","agitation","1"
"120086119671108","3","-0.47526285","1.1675566","9.718544","agitation","1"
"120086139604702","3","-0.48963574","1.1603702","9.7089615","agitation","1"
"120086159516525","3","-0.5255679","1.124438","9.649075","agitation","1"
"120086179402150","3","-0.5064041","1.1507883","9.670634","agitation","1"
"120086199314025","3","-0.49682218","1.1819295","9.658657","agitation","1"
"120086219237098","3","-0.48484477","1.184325","9.680216","agitation","1"
"120086239149025","3","-0.5255679","1.1651611","9.689797","agitation","1"
"120086259064910","3","-0.50400865","1.1483928","9.65147","agitation","1"
"120086278976838","3","-0.47047192","1.1891159","9.67303","agitation","1"
"120086298886265","3","-0.48005384","1.1388109","9.670634","agitation","1"
"120086318798192","3","-0.46807644","1.0549692","9.687403","agitation","1"
"120086338723192","3","-0.5279634","1.0717375","9.701775","agitation","1"
"120086358635119","3","-0.54712725","1.1651611","9.749685","agitation","1"
"120086378517150","3","-0.49442673","1.2442119","9.67303","agitation","1"
"120086398428921","3","-0.49682218","1.1699522","9.692194","agitation","1"
"120086418360067","3","-0.5255679","1.1507883","9.713753","agitation","1"
"120086438271942","3","-0.52317244","1.1986979","9.69938","agitation","1"
"120086458189285","3","-0.46807644","1.2202572","9.692194","agitation","1"
"120086478101160","3","-0.44172618","1.1986979","9.6562605","agitation","1"
"120086498012150","3","-0.49203122","1.1459974","9.677821","agitation","1"
"120086517924025","3","-0.5135905","1.1627656","9.69938","agitation","1"
"120086537806213","3","-0.5255679","1.1675566","9.685007","agitation","1"
"120086557718088","3","-0.49203122","1.184325","9.632307","agitation","1"
"120086577652046","3","-0.46568096","1.1603702","9.687403","agitation","1"
"120086597563921","3","-0.51119506","1.1651611","9.706566","agitation","1"
"120086617513504","3","-0.5135905","1.1939069","9.694589","agitation","1"
"120086637425379","3","-0.52317244","1.2010933","9.701775","agitation","1"
"120086657333921","3","-0.52317244","1.1531837","9.701775","agitation","1"
"120086677245796","3","-0.52317244","1.1100652","9.711357","agitation","1"
"120086697151473","3","-0.5423363","1.119647","9.737708","agitation","1"
"120086717063296","3","-0.53275436","1.1555792","9.737708","agitation","1"
"120086736958088","3","-0.45609906","1.1603702","9.665843","agitation","1"
"120086756869910","3","-0.45370355","1.1220425","9.646679","agitation","1"
"120086776793713","3","-0.49442673","1.1316245","9.661052","agitation","1"
"120086796705535","3","-0.49682218","1.1388109","9.658657","agitation","1"
"120086816582515","3","-0.515986","1.1316245","9.6562605","agitation","1"
"120086836494338","3","-0.48963574","1.1603702","9.704171","agitation","1"
"120086856416942","3","-0.49442673","1.1699522","9.689797","agitation","1"
"120086876328817","3","-0.520777","1.1651611","9.685007","agitation","1"
"120086896238765","3","-0.5303589","1.1795341","9.685007","agitation","1"
"120086916150588","3","-0.5303589","1.1795341","9.704171","agitation","1"
"120086936077150","3","-0.54712725","1.1771386","9.720939","agitation","1"
"120086955988973","3","-0.54473174","1.174743","9.7089615","agitation","1"
"120086975909963","3","-0.5135905","1.1651611","9.668239","agitation","1"
"120086995821838","3","-0.515986","1.1627656","9.685007","agitation","1"
"120087015724702","3","-0.50161314","1.1675566","9.692194","agitation","1"
"120087035636629","3","-0.50400865","1.174743","9.680216","agitation","1"
"120087055542306","3","-0.47526285","1.1627656","9.680216","agitation","1"
"120087075454129","3","-0.49203122","1.1459974","9.653866","agitation","1"
"120087095350171","3","-0.49921766","1.1531837","9.675425","agitation","1"
"120087115261994","3","-0.48724028","1.1459974","9.706566","agitation","1"
"120087135180744","3","-0.50161314","1.1507883","9.689797","agitation","1"
"120087155092619","3","-0.520777","1.1483928","9.685007","agitation","1"
"120087174998713","3","-0.49682218","1.1603702","9.701775","agitation","1"
"120087194910588","3","-0.50161314","1.1555792","9.69938","agitation","1"
"120087214854285","3","-0.5183815","1.1459974","9.685007","agitation","1"
"120087234766108","3","-0.5064041","1.1436019","9.713753","agitation","1"
"120087254654285","3","-0.51119506","1.1579747","9.69938","agitation","1"
"120087274566160","3","-0.51119506","1.1699522","9.67303","agitation","1"
"120087294480640","3","-0.50161314","1.1603702","9.701775","agitation","1"
"120087314392515","3","-0.50161314","1.1483928","9.658657","agitation","1"
"120087334314858","3","-0.50879955","1.1531837","9.689797","agitation","1"
"120087354226733","3","-0.51119506","1.1579747","9.685007","sit up","1"
"120087374143713","3","-0.50400865","1.1483928","9.661052","sit up","1"
"120087394055588","3","-0.50879955","1.1723477","9.682611","sit up","1"
"120087413954963","3","-0.5255679","1.1627656","9.67303","sit up","1"
"120087433866838","3","-0.515986","1.1603702","9.687403","sit up","1"
"120087453779598","3","-0.5135905","1.1699522","9.692194","sit up","1"
"120087473691525","3","-0.5135905","1.1531837","9.711357","sit up","1"
"120087493633192","3","-0.5303589","1.1603702","9.704171","sit up","1"
"120087513545067","3","-0.51119506","1.1699522","9.692194","sit up","1"
"120087533455640","3","-0.49442673","1.1603702","9.668239","sit up","1"
"120087553367515","3","-0.49682218","1.1579747","9.689797","sit up","1"
"120087573281838","3","-0.5303589","1.1651611","9.682611","sit up","1"
"120087593193660","3","-0.53275436","1.1579747","9.677821","sit up","1"
"120087613113296","3","-0.49921766","1.1459974","9.692194","sit up","1"
"120087633025119","3","-0.51119506","1.1603702","9.69938","sit up","1"
"120087652901785","3","-0.50161314","1.1555792","9.687403","sit up","1"
"120087672813608","3","-0.5064041","1.1627656","9.69938","sit up","1"
"120087692751421","3","-0.49921766","1.1459974","9.716147","sit up","1"
"120087712663296","3","-0.49921766","1.1603702","9.634702","sit up","1"
"120087732584702","3","-0.5255679","1.1579747","9.639493","sit up","1"
"120087752496577","3","-0.520777","1.1507883","9.7089615","sit up","1"
"120087772391733","3","-0.51119506","1.1531837","9.7089615","sit up","1"
"120087792303660","3","-0.5351498","1.1531837","9.665843","sit up","1"
"120087812236942","3","-0.5423363","1.1555792","9.720939","sit up","1"
"120087832148817","3","-0.5303589","1.1819295","9.692194","sit up","1"
"120087852043088","3","-0.5064041","1.1651611","9.682611","sit up","1"
"120087871954910","3","-0.5135905","1.1651611","9.694589","sit up","1"
"120087891905015","3","-0.5495227","1.1268334","9.67303","sit up","1"
"120087911816890","3","-0.51119506","1.1436019","9.761662","sit up","1"
"120087931703765","3","-0.5135905","1.1891159","9.807176","sit up","1"
"120087951615640","3","-0.52317244","1.1675566","9.6562605","sit up","1"
"120087971517202","3","-0.49442673","1.1388109","9.567629","sit up","1"
"120087991429077","3","-0.44412166","1.0765285","9.766453","sit up","1"
"120088011345588","3","-0.50161314","1.0837148","9.766453","sit up","1"
"120088031257515","3","-0.56629103","1.3232627","9.613143","sit up","1"
"120088051176577","3","-0.48484477","1.3567994","9.601165","sit up","1"
"120088071088504","3","-0.36746633","1.1819295","9.622725","sit up","1"
"120088091001108","3","-0.42974877","1.0717375","9.696984","sit up","1"
"120088110912983","3","-0.69325143","1.0669465","9.79999","sit up","1"
"120088130831213","3","-0.8609349","0.8369806","9.69938","sit up","1"
"120088150743088","3","-0.5567092","0.6142011","9.565233","sit up","1"
"120088170660223","3","-0.22134215","1.5484377","9.208307","sit up","1"
"120088190572358","3","-0.2596698","2.1544938","9.210702","sit up","1"
"120088210446525","3","-0.6908559","1.4334548","11.021684","sit up","1"
"120088230358660","3","-0.7794886","0.9280088","10.839628","sit up","1"
"120088250330900","3","-0.46568096","0.899263","8.736398","sit up","1"
"120088270243088","3","-0.20696932","1.0573646","8.940013","sit up","1"
"120088290146577","3","-0.2500879","1.3520085","9.261007","sit up","1"
"120088310058713","3","-0.4177714","1.2513983","9.960486","sit up","1"
"120088330005848","3","-0.43693522","1.0837148","9.838318","sit up","1"
"120088349917931","3","-0.35548896","1.1939069","9.608352","sit up","1"
"120088369823556","3","-0.4177714","1.1436019","9.807176","sit up","1"
"120088389735692","3","-0.5375453","1.3256582","9.883832","sit up","1"
"120088409627098","3","-0.48484477","1.6490479","9.538883","sit up","1"
"120088429539233","3","-0.58305943","1.4406412","9.605956","sit up","1"
"120088449487515","3","-0.626178","1.2561893","9.924555","sit up","1"
"120088469399650","3","-0.405794","1.4166863","9.627516","sit up","1"
"120088489319858","3","-0.50161314","1.4262683","9.72573","sit up","1"
"120088509232046","3","-0.6237825","1.184325","9.912578","sit up","1"
"120088529129858","3","-0.5495227","0.743557","9.639493","sit up","1"
"120088549041994","3","-0.44172618","0.49921814","9.402341","sit up","1"
"120088568971108","3","-0.44172618","1.0765285","9.359221","sit up","1"
"120088588883244","3","-0.54712725","1.6921664","9.706566","sit up","1"
"120088608797098","3","-0.41537592","1.3975226","10.073075","sit up","1"
"120088628709233","3","-0.23571503","1.0980878","9.608352","sit up","1"
"120088648614233","3","-0.24290144","1.2202572","9.426295","sit up","1"
"120088668526317","3","-0.4824493","1.174743","10.051515","sit up","1"
"120088688399494","3","-0.626178","1.0286188","9.845504","sit up","1"
"120088708311629","3","-0.8896806","0.87051725","9.402341","sit up","1"
"120088728255171","3","-0.6956469","0.94956815","9.337663","sit up","1"
"120088748167306","3","-0.30757937","1.1699522","9.766453","sit up","1"
"120088768081056","3","0.09965193","1.4502231","10.264713","sit up","1"
"120088787993192","3","-0.020121932","2.0443017","9.97486","sit up","1"
"120088807933192","3","-0.70283335","2.020347","9.4766","sit up","1"
"120088827845327","3","-0.6836695","1.2010933","9.771244","sit up","1"
"120088847767827","3","-0.3051839","0.5231729","9.807176","sit up","1"
"120088867679963","3","-0.2812291","1.014246","9.347245","sit up","1"
"120088887563608","3","-0.76990676","1.9892057","9.112488","sit up","1"
"120088907475744","3","-0.6237825","1.6777936","9.383177","sit up","1"
"120088927414390","3","-0.24290144","0.7603253","10.370113","sit up","1"
"120088947326525","3","-0.04647225","0.95435905","9.74729","sit up","1"
"120088967209806","3","0.36555016","1.1555792","9.011878","sit up","1"
"120088987121890","3","-0.57587296","0.59982824","9.622725","sit up","1"
"120089007051421","3","-1.3831493","0.82979417","10.667152","sit up","1"
"120089026963556","3","-1.0286185","1.5053191","10.513843","sit up","1"
"120089046869910","3","-0.32195225","1.6322795","8.630997","sit up","1"
"120089066782046","3","-0.15905976","1.5771835","8.916058","sit up","1"
"120089086699338","3","-0.032099366","1.3711723","9.536487","sit up","1"
"120089106611473","3","-0.47526285","1.0070596","9.950905","sit up","1"
"120089126524858","3","-0.7866751","1.1771386","10.326995","sit up","1"
"120089146436994","3","-0.44412166","1.2466074","9.694589","sit up","1"
"120089166350848","3","-0.22852856","1.0837148","9.37599","sit up","1"
"120089186262931","3","-0.36746633","1.0094551","9.455041","sit up","1"
"120089206164546","3","-0.36986184","1.0501782","9.744894","sit up","1"
"120089226076681","3","-0.2812291","1.2010933","9.79999","sit up","1"
"120089246012254","3","-0.36746633","1.2873305","9.718544","sit up","1"
"120089265924910","3","-0.6501328","1.1795341","9.682611","sit up","1"
"120089285823400","3","-0.62138706","1.0932968","9.780826","sit up","1"
"120089305736056","3","-0.4177714","1.1986979","9.740103","sit up","1"
"120089325674077","3","-0.34111607","1.2873305","9.617934","sit up","1"
"120089345586733","3","-0.35548896","1.2633758","9.622725","sit up","1"
"120089365478400","3","-0.350698","1.2825396","9.685007","sit up","1"
"120089385391004","3","-0.34590703","1.3160763","9.701775","sit up","1"
"120089405290483","3","-0.36986184","1.2633758","9.620329","sit up","1"
"120089425203140","3","-0.3626754","1.1555792","9.649075","sit up","1"
"120089445145171","3","-0.36507085","1.0956923","9.716147","sit up","1"
"120089465057827","3","-0.31237033","1.1771386","9.749685","sit up","1"
"120089484936577","3","-0.3914211","1.2226527","9.634702","sit up","1"
"120089504849233","3","-0.520777","1.2418165","9.601165","sit up","1"
"120089524754910","3","-0.5255679","1.2226527","9.778431","sit up","1"
"120089544667567","3","-0.39381662","1.124438","9.694589","sit up","1"
"120089564586577","3","-0.32674322","1.1651611","9.653866","sit up","1"
"120089584499233","3","-0.36746633","1.2034888","9.742498","sit up","1"
"120089604413348","3","-0.34590703","1.2010933","9.704171","sit up","1"
"120089624326004","3","-0.28602007","1.1986979","9.617934","sit up","1"
"120089644268973","3","-0.2500879","1.239421","9.663447","sit up","1"
"120089664181629","3","-0.42256233","1.3735678","9.732917","sit up","1"
"120089684103608","3","-0.48963574","1.3376356","9.685007","sit up","1"
"120089704016213","3","-0.37944373","1.2561893","9.586792","sit up","1"
"120089723890483","3","-0.3914211","1.1579747","9.613143","sit up","1"
"120089743803088","3","-0.44651714","1.0837148","9.766453","sit up","1"
"120089763731577","3","-0.42495784","1.0262234","9.795198","sit up","1"
"120089783644233","3","-0.29081103","1.1076697","9.680216","sit up","1"
"120089803530692","3","-0.24529693","1.2034888","9.749685","sit up","1"
"120089823443348","3","-0.38423467","1.2202572","9.730521","sit up","1"
"120089843396108","3","-0.37704822","1.1412064","9.565233","sit up","1"
"120089863308713","3","-0.37465277","1.1316245","9.593979","sit up","1"
"120089883225483","3","-0.41058496","1.1627656","9.783222","sit up","1"
"120089903138088","3","-0.3722573","1.2154663","9.804781","sit up","1"
"120089923046733","3","-0.35548896","1.2058843","9.665843","sit up","1"
"120089942959338","3","-0.36986184","1.2130708","9.62512","sit up","1"
"120089962861004","3","-0.45609906","1.1795341","9.65147","sit up","1"
"120089982773660","3","-0.4393307","1.2537938","9.689797","sit up","1"
"120090002682879","3","-0.46328548","1.3064944","9.694589","sit up","1"
"120090022595535","3","-0.40818948","1.2154663","9.680216","sit up","1"
"120090042522463","3","-0.39621207","1.2250481","9.720939","sit up","1"
"120090062435067","3","-0.41058496","1.2561893","9.653866","sit up","1"
"120090082319390","3","-0.37944373","1.2418165","9.663447","sit up","1"
"120090102232046","3","-0.40818948","1.1939069","9.685007","sit up","1"
"120090122149910","3","-0.45370355","1.1220425","9.69938","sit up","1"
"120090142062567","3","-0.40818948","1.1388109","9.730521","sit up","1"
"120090161973296","3","-0.35548896","1.1867205","9.682611","sit up","1"
"120090181885900","3","-0.3602799","1.2106752","9.653866","sit up","1"
"120090201793660","3","-0.35788444","1.2202572","9.665843","sit up","1"
"120090221706265","3","-0.33153418","1.1939069","9.675425","sit up","1"
"120090241623035","3","-0.36746633","1.1795341","9.713753","sit up","1"
"120090261535692","3","-0.3914211","1.1675566","9.7089615","sit up","1"
"120090281478817","3","-0.3626754","1.13402","9.706566","sit up","1"
"120090301343608","3","-0.41298044","1.2082798","9.7089615","sit up","1"
"120090321287150","3","-0.39621207","1.2154663","9.6562605","sit up","1"
"120090341177463","3","-0.37704822","1.1963024","9.661052","sit up","1"
"120090361090119","3","-0.41298044","1.2154663","9.69938","sit up","1"
"120090381029233","3","-0.40818948","1.2154663","9.704171","sit up","1"
"120090400941890","3","-0.39860755","1.1986979","9.704171","sit up","1"
"120090420807983","3","-0.38423467","1.1867205","9.696984","sit up","1"
"120090440720640","3","-0.3722573","1.1963024","9.7089615","sit up","1"
"120090460657619","3","-0.38183922","1.1986979","9.67303","sit up","1"
"120090480570327","3","-0.38663018","1.2010933","9.634702","sit up","1"
"120090500484442","3","-0.39621207","1.2106752","9.69938","sit up","1"
"120090520397098","3","-0.39860755","1.2130708","9.713753","sit up","1"
"120090540305640","3","-0.39621207","1.2010933","9.692194","sit up","1"
"120090560218296","3","-0.38423467","1.2010933","9.689797","sit up","1"
"120090580141369","3","-0.36746633","1.2154663","9.696984","sit up","1"
"120090600054025","3","-0.35309345","1.2154663","9.694589","sit up","1"
"120090619952619","3","-0.36507085","1.1915114","9.675425","sit up","1"
"120090639865275","3","-0.3626754","1.174743","9.67303","sit up","1"
"120090659781004","3","-0.3722573","1.1915114","9.716147","sit up","1"
"120090679693660","3","-0.3722573","1.184325","9.713753","sit up","1"
"120090699597410","3","-0.36986184","1.1867205","9.661052","sit up","1"
"120090719510119","3","-0.36986184","1.1891159","9.668239","sit up","1"
"120090739457775","3","-0.38902566","1.2106752","9.716147","sit up","1"
"120090759370431","3","-0.37704822","1.2178617","9.713753","sit up","1"
"120090779253608","3","-0.38902566","1.1867205","9.67303","sit up","1"
"120090799166265","3","-0.39860755","1.1963024","9.692194","sit up","1"
"120090819080640","3","-0.3914211","1.1963024","9.69938","sit up","1"
"120090838993348","3","-0.38663018","1.1939069","9.680216","sit up","1"
"120090858909910","3","-0.38902566","1.1986979","9.692194","sit up","1"
"120090878822567","3","-0.39621207","1.1939069","9.689797","sit up","1"
"120090898737098","3","-0.40100306","1.1986979","9.680216","sit up","1"
"120090918649754","3","-0.38423467","1.1939069","9.680216","sit up","1"
"120090938581108","3","-0.37944373","1.1891159","9.685007","sit up","1"
"120090958493817","3","-0.40100306","1.1891159","9.685007","sit up","1"
"120090978372410","3","-0.4033985","1.1939069","9.69938","sit up","1"
"120090998285067","3","-0.38902566","1.1867205","9.706566","sit up","1"
"120091018230588","3","-0.36746633","1.184325","9.704171","sit up","1"
"120091038143244","3","-0.38183922","1.1795341","9.718544","sit up","1"
"120091058057879","3","-0.39860755","1.1915114","9.680216","sit up","1"
"120091077970588","3","-0.3722573","1.1891159","9.670634","sit up","1"
"120091097876838","3","-0.38183922","1.1891159","9.67303","sit up","1"
"120091117789546","3","-0.37944373","1.1963024","9.701775","sit up","1"
"120091137695640","3","-0.38663018","1.2082798","9.704171","sit up","1"
"120091157608296","3","-0.37704822","1.1939069","9.677821","sit up","1"
"120091177519077","3","-0.3914211","1.184325","9.685007","sit up","1"
"120091197431785","3","-0.41298044","1.1819295","9.696984","sit up","1"
"120091217346629","3","-0.38902566","1.1963024","9.689797","sit up","1"
"120091237259233","3","-0.38663018","1.2154663","9.701775","sit up","1"
"120091257133452","3","-0.38423467","1.1963024","9.69938","sit up","1"
"120091277046108","3","-0.38663018","1.1939069","9.689797","sit up","1"
"120091296989650","3","-0.38423467","1.184325","9.665843","sit up","1"
"120091316902358","3","-0.37944373","1.2106752","9.696984","sit up","1"
"120091336825483","3","-0.36507085","1.2010933","9.704171","sit up","1"
"120091356738088","3","-0.3602799","1.2058843","9.704171","stand up","1"
"120091376644650","3","-0.38423467","1.2058843","9.661052","stand up","1"
"120091396557254","3","-0.40100306","1.2034888","9.689797","stand up","1"
"120091416505588","3","-0.41058496","1.1771386","9.728126","stand up","1"
"120091436418192","3","-0.39381662","1.1699522","9.701775","stand up","1"
"120091456333817","3","-0.39381662","1.1819295","9.6562605","stand up","1"
"120091476246473","3","-0.39381662","1.2010933","9.670634","stand up","1"
"120091496134390","3","-0.38183922","1.2034888","9.661052","stand up","1"
"120091516046994","3","-0.37944373","1.1963024","9.682611","stand up","1"
"120091535918765","3","-0.39621207","1.174743","9.701775","stand up","1"
"120091555831421","3","-0.39860755","1.1915114","9.665843","stand up","1"
"120091575813765","3","-0.37944373","1.2082798","9.675425","stand up","1"
"120091595726421","3","-0.36746633","1.1963024","9.69938","stand up","1"
"120091615611577","3","-0.39381662","1.184325","9.689797","stand up","1"
"120091635524233","3","-0.4177714","1.1819295","9.665843","stand up","1"
"120091655436160","3","-0.42495784","1.1795341","9.653866","stand up","1"
"120091675348817","3","-0.41058496","1.1963024","9.668239","stand up","1"
"120091695265588","3","-0.39621207","1.1963024","9.7353115","stand up","1"
"120091715178192","3","-0.3914211","1.2058843","9.720939","stand up","1"
"120091735087254","3","-0.38902566","1.1939069","9.649075","stand up","1"
"120091754999858","3","-0.36746633","1.1963024","9.677821","stand up","1"
"120091774929702","3","-0.37944373","1.2034888","9.706566","stand up","1"
"120091794842306","3","-0.38902566","1.1963024","9.687403","stand up","1"
"120091814736056","3","-0.405794","1.1963024","9.69938","stand up","1"
"120091834648713","3","-0.39621207","1.2154663","9.701775","stand up","1"
"120091854555067","3","-0.4033985","1.184325","9.704171","stand up","1"
"120091874467723","3","-0.350698","1.1699522","9.675425","stand up","1"
"120091894392098","3","-0.33392966","1.2154663","9.701775","stand up","1"
"120091914304754","3","-0.3483025","1.2250481","9.732917","stand up","1"
"120091934210848","3","-0.3483025","1.2178617","9.646679","stand up","1"
"120091954123504","3","-0.37944373","1.2202572","9.649075","stand up","1"
"120091974067723","3","-0.42974877","1.2154663","9.742498","stand up","1"
"120091993980379","3","-0.38902566","1.1939069","9.675425","stand up","1"
"120092013866108","3","-0.35309345","1.2178617","9.675425","stand up","1"
"120092033778765","3","-0.35788444","1.239421","9.704171","stand up","1"
"120092053722567","3","-0.36746633","1.2178617","9.696984","stand up","1"
"120092073635171","3","-0.38902566","1.2178617","9.677821","stand up","1"
"120092093521785","3","-0.40100306","1.1915114","9.680216","stand up","1"
"120092113434442","3","-0.405794","1.1939069","9.694589","stand up","1"
"120092133382098","3","-0.32434773","1.1531837","9.69938","stand up","1"
"120092153294754","3","-0.29799744","1.1052742","9.675425","stand up","1"
"120092173199077","3","-0.30039293","1.1220425","9.716147","stand up","1"
"120092193111733","3","-0.27404267","1.1963024","9.701775","stand up","1"
"120092213002463","3","-0.4033985","1.2370255","9.67303","stand up","1"
"120092232915119","3","-0.42016685","1.13402","9.696984","stand up","1"
"120092252853140","3","-0.33872062","1.174743","9.593979","stand up","1"
"120092272765744","3","-0.30997485","1.3759633","9.546069","stand up","1"
"120092292669858","3","-0.40100306","1.3328447","9.670634","stand up","1"
"120092312582463","3","-0.350698","1.294517","9.811967","stand up","1"
"120092332493608","3","-0.35309345","1.1364155","9.65147","stand up","1"
"120092352406265","3","-0.48963574","1.1316245","9.637098","stand up","1"
"120092372296213","3","-0.40100306","1.2969124","9.720939","stand up","1"
"120092392208869","3","-0.41298044","1.1771386","9.670634","stand up","1"
"120092412120900","3","-0.45370355","1.0382009","9.694589","stand up","1"
"120092432033556","3","-0.42974877","1.129229","9.82634","stand up","1"
"120092451939650","3","-0.44172618","1.2202572","9.77364","stand up","1"
"120092471852358","3","-0.33153418","1.1867205","9.558047","stand up","1"
"120092491743608","3","-0.30278844","1.2490029","9.514928","stand up","1"
"120092511656317","3","-0.38423467","1.2729577","9.692194","stand up","1"
"120092531592463","3","-0.5519182","1.1723477","9.795198","stand up","1"
"120092551505171","3","-0.45130807","1.2010933","9.692194","stand up","1"
"120092571383035","3","-0.45130807","1.1699522","9.584397","stand up","1"
"120092591295744","3","-0.37704822","1.2322346","9.744894","stand up","1"
"120092611241785","3","-0.2021783","1.2010933","9.675425","stand up","1"
"120092631154494","3","-0.3722573","1.2633758","9.579606","stand up","1"
"120092651022358","3","-0.43214428","1.4023135","9.718544","stand up","1"
"120092670935067","3","-0.22852856","1.3184718","9.677821","stand up","1"
"120092690894494","3","-0.25248337","1.1436019","9.69938","stand up","1"
"120092710807150","3","-0.32195225","1.0765285","9.692194","stand up","1"
"120092730667723","3","-0.4177714","1.1100652","9.692194","stand up","1"
"120092750580431","3","-0.5615001","1.1220425","9.77364","stand up","1"
"120092770538817","3","-0.5854549","1.0118506","9.754476","stand up","1"
"120092790310327","3","-0.31955677","0.9208224","9.711357","stand up","1"
"120092810223035","3","-0.11594111","0.9375907","9.661052","stand up","1"
"120092830295692","3","-0.180619","1.0717375","9.644284","stand up","1"
"120092850208400","3","-0.27643815","1.2178617","9.711357","stand up","1"
"120092870123608","3","-0.47526285","1.2178617","9.759267","stand up","1"
"120092890036317","3","-0.3914211","1.1507883","9.644284","stand up","1"
"120092909921577","3","-0.3626754","1.0621556","9.646679","stand up","1"
"120092929834285","3","-0.38423467","1.0909013","9.732917","stand up","1"
"120092949778765","3","-0.33153418","1.1555792","9.768848","stand up","1"
"120092969691473","3","-0.32674322","1.1388109","9.682611","stand up","1"
"120092989569754","3","-0.38902566","1.0909013","9.670634","stand up","1"
"120093009482410","3","-0.3602799","1.13402","9.687403","stand up","1"
"120093029394650","3","-0.3602799","1.1483928","9.7089615","stand up","1"
"120093049307358","3","-0.37465277","1.1076697","9.728126","stand up","1"
"120093069226265","3","-0.38183922","1.1100652","9.7089615","stand up","1"
"120093089138973","3","-0.3602799","1.13402","9.668239","stand up","1"
"120093109080067","3","-0.3602799","1.1459974","9.692194","stand up","1"
"120093128992775","3","-0.3626754","1.129229","9.687403","stand up","1"
"120093148903504","3","-0.38423467","1.1172516","9.696984","stand up","1"
"120093168816213","3","-0.38183922","1.1316245","9.677821","stand up","1"
"120093188730483","3","-0.3722573","1.1220425","9.694589","stand up","1"
"120093208643192","3","-0.37465277","1.1316245","9.689797","stand up","1"
"120093228523140","3","-0.37465277","1.1316245","9.706566","stand up","1"
"120093248435848","3","-0.3602799","1.129229","9.692194","stand up","1"
"120093268373504","3","-0.37465277","1.124438","9.680216","stand up","1"
"120093288286213","3","-0.3602799","1.1388109","9.69938","stand up","1"
"120093308170848","3","-0.36986184","1.1268334","9.687403","stand up","1"
"120093328083556","3","-0.36746633","1.1220425","9.692194","stand up","1"
"120093347998296","3","-0.35309345","1.13402","9.704171","stand up","1"
"120093367911004","3","-0.3626754","1.1268334","9.685007","stand up","1"
"120093387825327","3","-0.36986184","1.124438","9.694589","stand up","1"
"120093407738035","3","-0.36746633","1.1172516","9.711357","stand up","1"
"120093427681369","3","-0.37465277","1.1483928","9.69938","stand up","1"
"120093447594025","3","-0.37465277","1.129229","9.680216","stand up","1"
"120093467506733","3","-0.3722573","1.1148561","9.680216","stand up","1"
"120093487419442","3","-0.35309345","1.1124606","9.713753","stand up","1"
"120093507302879","3","-0.350698","1.119647","9.694589","stand up","1"
"120093527215588","3","-0.3602799","1.1220425","9.663447","stand up","1"
"120093547128765","3","-0.38183922","1.1316245","9.694589","stand up","1"
"120093567041421","3","-0.37465277","1.1651611","9.711357","stand up","1"
"120093586981317","3","-0.37704822","1.1459974","9.692194","stand up","1"
"120093606894025","3","-0.35788444","1.1124606","9.704171","stand up","1"
"120093626791160","3","-0.3626754","1.1052742","9.696984","stand up","1"
"120093646703817","3","-0.36986184","1.1412064","9.689797","stand up","1"
"120093666612202","3","-0.3602799","1.129229","9.689797","stand up","1"
"120093686496577","3","-0.3722573","1.1268334","9.694589","stand up","1"
"120093706446890","3","-0.3722573","1.1388109","9.704171","stand up","1"
"120093726352671","3","-0.37944373","1.1172516","9.706566","stand up","1"
"120093746265379","3","-0.34111607","1.1268334","9.696984","stand up","1"
"120093766186160","3","-0.350698","1.1268334","9.680216","stand up","1"
"120093786098817","3","-0.36746633","1.1436019","9.696984","stand up","1"
"120093806026108","3","-0.36986184","1.1268334","9.696984","stand up","1"
"120093825938817","3","-0.36986184","1.1148561","9.7089615","stand up","1"
"120093845836056","3","-0.34351155","1.1364155","9.713753","stand up","1"
"120093865748713","3","-0.3626754","1.1268334","9.675425","stand up","1"
"120093885672410","3","-0.39381662","1.1316245","9.704171","stand up","1"
"120093905585067","3","-0.3602799","1.1723477","9.74729","stand up","1"
"120093925493713","3","-0.36986184","1.0980878","9.670634","stand up","1"
"120093945406369","3","-0.35788444","1.1028787","9.685007","stand up","1"
"120093965300431","3","-0.36507085","1.1364155","9.730521","stand up","1"
"120093985213192","3","-0.3602799","1.1507883","9.677821","stand up","1"
"120094005144650","3","-0.37704822","1.124438","9.653866","stand up","1"
"120094025057306","3","-0.37465277","1.13402","9.711357","stand up","1"
"120094044972671","3","-0.3626754","1.13402","9.711357","stand up","1"
"120094064885327","3","-0.3602799","1.1076697","9.668239","stand up","1"
"120094084801942","3","-0.34111607","1.1412064","9.713753","stand up","1"
"120094104714598","3","-0.36986184","1.1507883","9.694589","stand up","1"
"120094124625171","3","-0.37465277","1.129229","9.689797","stand up","1"
"120094144537827","3","-0.3602799","1.0956923","9.72573","stand up","1"
"120094164458140","3","-0.3602799","1.1412064","9.696984","stand up","1"
"120094184370848","3","-0.35788444","1.1316245","9.67303","stand up","1"
"120094204255692","3","-0.3602799","1.1364155","9.696984","stand up","1"
"120094224168348","3","-0.36507085","1.13402","9.704171","stand up","1"
"120094244099806","3","-0.3722573","1.124438","9.692194","stand up","1"
"120094264012463","3","-0.3626754","1.119647","9.718544","stand up","1"
"120094283904025","3","-0.3722573","1.1124606","9.704171","stand up","1"
"120094303816733","3","-0.36746633","1.1364155","9.692194","stand up","1"
"120094323740015","3","-0.3602799","1.1268334","9.704171","stand up","1"
"120094343652723","3","-0.3626754","1.1124606","9.711357","stand up","1"
"120094363584963","3","-0.36746633","1.1483928","9.732917","stand up","1"
"120094383497619","3","-0.3722573","1.1364155","9.701775","stand up","1"
"120094403400067","3","-0.38183922","1.1004833","9.649075","stand up","1"
"120094423312723","3","-0.3722573","1.1124606","9.720939","stand up","1"
"120094443227879","3","-0.35788444","1.1364155","9.701775","stand up","1"
"120094463140535","3","-0.350698","1.129229","9.661052","stand up","1"
"120094483018452","3","-0.36986184","1.13402","9.718544","stand up","1"
"120094502931108","3","-0.3626754","1.1555792","9.7089615","stand up","1"
"120094522851629","3","-0.36986184","1.1028787","9.675425","stand up","1"
"120094542764338","3","-0.350698","1.119647","9.694589","stand up","1"
"120094562687879","3","-0.36507085","1.129229","9.704171","stand up","1"
"120094582600588","3","-0.35309345","1.1436019","9.7089615","stand up","1"
"120094602521994","3","-0.36746633","1.1172516","9.69938","stand up","1"
"120094622434650","3","-0.37465277","1.1148561","9.689797","stand up","1"
"120094642312150","3","-0.37465277","1.1268334","9.692194","stand up","1"
"120094662224858","3","-0.35788444","1.119647","9.689797","stand up","1"
"120094682138608","3","-0.36746633","1.1268334","9.682611","stand up","1"
"120094702051317","3","-0.36507085","1.1364155","9.692194","stand up","1"
"120094721956994","3","-0.3626754","1.1172516","9.69938","stand up","1"
"120094741869546","3","-0.3722573","1.1052742","9.69938","stand up","1"
"120094761808817","3","-0.36746633","1.1148561","9.706566","stand up","1"
"120094781721369","3","-0.35788444","1.119647","9.69938","stand up","1"
"120094801612515","3","-0.35548896","1.124438","9.677821","stand up","1"
"120094821525067","3","-0.35788444","1.1316245","9.692194","stand up","1"
"120094841458869","3","-0.37704822","1.13402","9.69938","stand up","1"
"120094861371421","3","-0.36507085","1.1316245","9.692194","stand up","1"
"120094881254285","3","-0.36507085","1.1364155","9.694589","stand up","1"
"120094901166838","3","-0.36746633","1.129229","9.701775","stand up","1"
"120094921093660","3","-0.3626754","1.1268334","9.706566","stand up","1"
"120094941006213","3","-0.3602799","1.1268334","9.706566","stand up","1"
"120094960906629","3","-0.3626754","1.1124606","9.7089615","stand up","1"
"120094980819233","3","-0.3626754","1.1220425","9.689797","stand up","1"
"120095000746108","3","-0.3602799","1.1172516","9.67303","stand up","1"
"120095020658660","3","-0.36986184","1.1220425","9.692194","stand up","1"
"120095040555535","3","-0.35548896","1.124438","9.713753","stand up","1"
"120095060468088","3","-0.36507085","1.119647","9.682611","stand up","1"
"120095080361004","3","-0.36986184","1.1268334","9.668239","stand up","1"
"120095100273556","3","-0.36986184","1.129229","9.706566","stand up","1"
"120095120218452","3","-0.35788444","1.129229","9.692194","stand up","1"
"120095140131004","3","-0.36507085","1.1364155","9.677821","stand up","1"
"120095160043556","3","-0.37944373","1.13402","9.711357","stand up","1"
"120095179956108","3","-0.35788444","1.124438","9.701775","stand up","1"
"120095199868192","3","-0.35788444","1.129229","9.69938","stand up","1"
"120095219780744","3","-0.35788444","1.1364155","9.692194","stand up","1"
"120095239686733","3","-0.36507085","1.1388109","9.7089615","stand up","1"
"120095259599338","3","-0.36507085","1.124438","9.711357","stand up","1"
"120095279517619","3","-0.37465277","1.1364155","9.685007","stand up","1"
"120095299430119","3","-0.35309345","1.1364155","9.696984","stand up","1"
"120095319323400","3","-0.37465277","1.1268334","9.706566","stand up","1"
"120095339236004","3","-0.36746633","1.1172516","9.692194","stand up","1"
"120095379050379","3","-0.35788444","1.1268334","9.692194","stand up","1"
"120095398962931","3","-0.36746633","1.119647","9.701775","none","2"
"120095418869025","3","-0.36507085","1.1268334","9.701775","none","2"
"120095438781525","3","-0.3626754","1.124438","9.69938","none","2"
"120095458718765","3","-0.36507085","1.119647","9.696984","none","2"
"120095478631317","3","-0.33872062","1.1364155","9.687403","none","2"
"120095498539390","3","-0.35788444","1.1316245","9.694589","none","2"
"120095518451942","3","-0.3602799","1.124438","9.7089615","none","2"
"120095538383088","3","-0.3602799","1.1148561","9.711357","none","2"
"120095558295640","3","-0.38663018","1.13402","9.694589","none","2"
"120095578203973","3","-0.37465277","1.119647","9.67303","none","2"
"120095598116525","3","-0.37465277","1.1148561","9.694589","none","2"
"120095618028244","3","-0.36507085","1.124438","9.706566","none","2"
"120095637940796","3","-0.36507085","1.124438","9.694589","none","2"
"120095657855796","3","-0.35309345","1.119647","9.694589","none","2"
"120095677768348","3","-0.36986184","1.1364155","9.694589","none","2"
"120095697680900","3","-0.36746633","1.1268334","9.694589","none","2"
"120095717593452","3","-0.3602799","1.1124606","9.694589","none","2"
"120095737483556","3","-0.35548896","1.1316245","9.713753","none","2"
"120095757396160","3","-0.35309345","1.1388109","9.694589","none","2"
"120095777296213","3","-0.36507085","1.129229","9.694589","none","2"
"120095797208817","3","-0.37704822","1.1220425","9.694589","none","2"
"120095817147306","3","-0.3626754","1.124438","9.701775","none","2"
"120095837059858","3","-0.36507085","1.124438","9.689797","none","2"
"120095856968140","3","-0.3626754","1.129229","9.696984","none","2"
"120095876880692","3","-0.36507085","1.1364155","9.694589","none","2"
"120095896768869","3","-0.36507085","1.13402","9.69938","none","2"
"120095916681421","3","-0.3602799","1.1220425","9.696984","none","2"
"120095936610744","3","-0.3626754","1.1268334","9.689797","none","2"
"120095956523296","3","-0.3602799","1.1316245","9.701775","none","2"
"120095976443713","3","-0.36507085","1.13402","9.704171","none","2"
"120095996356265","3","-0.36986184","1.1268334","9.692194","none","2"
"120096016251004","3","-0.35788444","1.1364155","9.696984","none","2"
"120096036163608","3","-0.37465277","1.1388109","9.711357","none","2"
"120096056043244","3","-0.34590703","1.129229","9.689797","none","2"
"120096075955796","3","-0.3626754","1.124438","9.677821","none","2"
