"Timestamp","Accuracy","Acceleration X","Acceleration Y","Acceleration Z","Label","Cycle"
"19387692281905","3","0.24181437","0.038307227","8.868123","none","0"
"19387712270919","3","0.22984336","-0.079008654","9.466674","none","0"
"19387732290450","3","0.20829555","-0.074220255","9.751583","none","0"
"19387752279464","3","0.14844051","-0.055066638","9.368511","none","0"
"19387772268477","3","0.20111294","-0.031124622","9.464279","none","0"
"19387792257491","3","0.22744916","-0.019153614","9.540894","none","0"
"19387812246505","3","0.20590134","-0.031124622","9.440337","none","0"
"19387832235518","3","0.19871874","-0.038307227","9.485827","none","0"
"19387852224532","3","0.19393034","-0.038307227","9.516952","none","0"
"19387872213546","3","0.20829555","-0.038307227","9.49301","none","0"
"19387892202559","3","0.20590134","-0.038307227","9.478644","none","0"
"19387912191573","3","0.20111294","-0.038307227","9.483433","none","0"
"19387932180587","3","0.20111294","-0.033518825","9.476251","none","0"
"19387952200118","3","0.19153613","-0.04070143","9.485827","none","0"
"19387972189132","3","0.19393034","-0.035913024","9.485827","none","0"
"19387992178145","3","0.19632454","-0.035913024","9.49301","none","0"
"19388012197676","3","0.20350714","-0.04070143","9.478644","none","0"
"19388032217208","3","0.19393034","-0.033518825","9.485827","none","0"
"19388052206221","3","0.19871874","-0.035913024","9.481039","none","0"
"19388072225753","3","0.20590134","-0.031124622","9.485827","none","0"
"19388092184249","3","0.19393034","-0.035913024","9.481039","none","0"
"19388112234298","3","0.20590134","-0.038307227","9.481039","none","0"
"19388132223311","3","0.19632454","-0.033518825","9.502586","none","0"
"19388152242842","3","0.19871874","-0.02633622","9.500193","none","0"
"19388172231856","3","0.20590134","-0.038307227","9.483433","none","0"
"19388192220870","3","0.19632454","-0.038307227","9.488221","none","0"
"19388212209883","3","0.19871874","-0.04309563","9.481039","none","0"
"19388232198897","3","0.19871874","-0.031124622","9.488221","none","0"
"19388252187911","3","0.20111294","-0.023942016","9.49301","none","0"
"19388272176924","3","0.20350714","-0.02873042","9.485827","none","0"
"19388292196456","3","0.19871874","-0.033518825","9.488221","none","0"
"19388312185469","3","0.20590134","-0.033518825","9.485827","none","0"
"19388332205001","3","0.18914193","-0.033518825","9.488221","none","0"
"19388352194014","3","0.20590134","-0.031124622","9.49301","none","0"
"19388372183028","3","0.20111294","-0.033518825","9.485827","none","0"
"19388392172042","3","0.19871874","-0.045489833","9.49301","none","0"
"19388412191573","3","0.20590134","-0.038307227","9.490616","none","0"
"19388432180587","3","0.19871874","-0.033518825","9.495404","none","0"
"19388452200118","3","0.19632454","-0.031124622","9.478644","none","0"
"19388472189132","3","0.20350714","-0.035913024","9.481039","none","0"
"19388492208663","3","0.20350714","-0.038307227","9.483433","none","0"
"19388512228194","3","0.20350714","-0.045489833","9.481039","none","0"
"19388532186690","3","0.20350714","-0.04309563","9.485827","none","0"
"19388552206221","3","0.20590134","-0.033518825","9.488221","none","0"
"19388572225753","3","0.19393034","-0.02873042","9.500193","none","0"
"19388592214766","3","0.19632454","-0.038307227","9.488221","none","0"
"19388612203780","3","0.19632454","-0.033518825","9.488221","none","0"
"19388632223311","3","0.21308395","-0.045489833","9.481039","none","0"
"19388652212325","3","0.19153613","-0.031124622","9.490616","none","0"
"19388672201339","3","0.20829555","-0.035913024","9.485827","none","0"
"19388692220870","3","0.20590134","-0.04309563","9.488221","none","0"
"19388712240401","3","0.19871874","-0.035913024","9.476251","none","0"
"19388732229415","3","0.19393034","-0.035913024","9.485827","none","0"
"19388752218428","3","0.20590134","-0.035913024","9.49301","none","0"
"19388772237960","3","0.20590134","-0.033518825","9.490616","none","0"
"19388792226973","3","0.19393034","-0.04070143","9.481039","none","0"
"19388812215987","3","0.20829555","-0.033518825","9.488221","none","0"
"19388832205001","3","0.20829555","-0.038307227","9.49301","none","0"
"19388852194014","3","0.20590134","-0.035913024","9.497798","none","0"
"19388872183028","3","0.19632454","-0.033518825","9.488221","none","0"
"19388892202559","3","0.20111294","-0.031124622","9.49301","none","0"
"19388912191573","3","0.19871874","-0.035913024","9.495404","none","0"
"19388932180587","3","0.20590134","-0.038307227","9.476251","none","0"
"19388952200118","3","0.20350714","-0.021547815","9.495404","none","0"
"19388972189132","3","0.20111294","-0.02633622","9.497798","none","0"
"19388992178145","3","0.20829555","-0.033518825","9.490616","none","0"
"19389012197676","3","0.20111294","-0.033518825","9.497798","none","0"
"19389032186690","3","0.19632454","-0.02873042","9.488221","none","0"
"19389052175704","3","0.19871874","-0.031124622","9.49301","none","0"
"19389072134200","3","0.20590134","-0.035913024","9.485827","none","0"
"19389092153731","3","0.20590134","-0.023942016","9.490616","none","0"
"19389112142745","3","0.19871874","-0.04070143","9.481039","none","0"
"19389132131758","3","0.20829555","-0.031124622","9.500193","none","0"
"19389152120772","3","0.20350714","-0.02873042","9.497798","none","0"
"19389172140303","3","0.20111294","-0.031124622","9.478644","none","0"
"19389192129317","3","0.20829555","-0.04070143","9.469068","none","0"
"19389212148848","3","0.20111294","-0.02633622","9.478644","none","0"
"19389232168380","3","0.20590134","-0.033518825","9.483433","none","0"
"19389252126876","3","0.19871874","-0.033518825","9.483433","none","0"
"19389272146407","3","0.20350714","-0.031124622","9.478644","none","0"
"19389292135421","3","0.20111294","-0.04309563","9.495404","none","0"
"19389312124434","3","0.19632454","-0.04070143","9.49301","none","0"
"19389332143965","3","0.19632454","-0.031124622","9.49301","none","0"
"19389352132979","3","0.19871874","-0.038307227","9.473856","none","0"
"19389372121993","3","0.20590134","-0.02873042","9.483433","none","0"
"19389392111007","3","0.20111294","-0.031124622","9.495404","none","0"
"19389412100020","3","0.20350714","-0.02633622","9.483433","none","0"
"19389432089034","3","0.20590134","-0.031124622","9.490616","none","0"
"19389452108565","3","0.19632454","-0.04309563","9.490616","none","0"
"19389472097579","3","0.19632454","-0.033518825","9.483433","none","0"
"19389492117110","3","0.21068975","-0.035913024","9.483433","none","0"
"19389512106124","3","0.20111294","-0.035913024","9.488221","none","0"
"19389532095137","3","0.19393034","-0.038307227","9.485827","none","0"
"19389552084151","3","0.20111294","-0.033518825","9.49301","none","0"
"19389572042647","3","0.20111294","-0.045489833","9.481039","none","0"
"19389592062178","3","0.20590134","-0.04070143","9.490616","none","0"
"19389612051192","3","0.20829555","-0.04309563","9.478644","none","0"
"19389632040206","3","0.21068975","-0.038307227","9.490616","none","0"
"19389652059737","3","0.20829555","-0.035913024","9.490616","none","0"
"19389672048751","3","0.20590134","-0.031124622","9.483433","none","0"
"19389692037764","3","0.20829555","-0.04309563","9.49301","none","0"
"19389712026778","3","0.20111294","-0.038307227","9.49301","none","0"
"19389732015792","3","0.19632454","-0.033518825","9.478644","none","0"
"19389752035323","3","0.20590134","-0.033518825","9.500193","none","0"
"19389772054854","3","0.20590134","-0.031124622","9.500193","none","0"
"19389792013350","3","0.20350714","-0.038307227","9.481039","none","0"
"19389812032882","3","0.19393034","-0.038307227","9.478644","none","0"
"19389832021895","3","0.20829555","-0.02633622","9.485827","none","0"
"19389852010909","3","0.19632454","-0.04070143","9.495404","none","0"
"19389871999923","3","0.19871874","-0.038307227","9.476251","none","0"
"19389891988936","3","0.20111294","-0.02873042","9.490616","none","0"
"19389911977950","3","0.19871874","-0.038307227","9.49301","none","0"
"19389931966964","3","0.19871874","-0.04309563","9.49301","none","0"
"19389951955977","3","0.20111294","-0.031124622","9.488221","none","0"
"19389971914473","3","0.20590134","-0.033518825","9.495404","none","0"
"19389991934005","3","0.20350714","-0.033518825","9.490616","none","0"
"19390011923018","3","0.20111294","-0.035913024","9.478644","none","0"
"19390031912032","3","0.20111294","-0.031124622","9.478644","none","0"
"19390051901046","3","0.20350714","-0.035913024","9.485827","none","0"
"19390071890059","3","0.20111294","-0.033518825","9.476251","none","0"
"19390091879073","3","0.20350714","-0.02873042","9.466674","none","0"
"19390111898604","3","0.19871874","-0.02633622","9.488221","none","0"
"19390131887618","3","0.20350714","-0.02633622","9.495404","none","0"
"19390151907149","3","0.20111294","-0.02633622","9.481039","none","0"
"19390171896163","3","0.20590134","-0.04070143","9.478644","none","0"
"19390191885176","3","0.20350714","-0.035913024","9.488221","none","0"
"19390211874190","3","0.20350714","-0.035913024","9.488221","none","0"
"19390231863204","3","0.20350714","-0.031124622","9.481039","none","0"
"19390251852217","3","0.21308395","-0.038307227","9.483433","none","0"
"19390271871749","3","0.21068975","-0.04070143","9.495404","none","0"
"19390291860762","3","0.20590134","-0.02633622","9.481039","none","0"
"19390311849776","3","0.19871874","-0.031124622","9.485827","none","0"
"19390331869307","3","0.20111294","-0.031124622","9.49301","none","0"
"19390351858321","3","0.20111294","-0.031124622","9.488221","none","0"
"19390371877852","3","0.20829555","-0.031124622","9.483433","none","0"
"19390391836348","3","0.19871874","-0.04070143","9.49301","none","0"
"19390411855880","3","0.19632454","-0.04309563","9.495404","none","0"
"19390431844893","3","0.19153613","-0.02873042","9.473856","none","0"
"19390451833907","3","0.20590134","-0.035913024","9.488221","none","0"
"19390471822921","3","0.19871874","-0.035913024","9.485827","none","0"
"19390491811934","3","0.20829555","-0.031124622","9.495404","none","0"
"19390511800948","3","0.20350714","-0.038307227","9.490616","none","0"
"19390531789962","3","0.19393034","-0.038307227","9.481039","none","0"
"19390551809493","3","0.19871874","-0.031124622","9.483433","none","0"
"19390571798507","3","0.20829555","-0.033518825","9.485827","none","0"
"19390591787520","3","0.20590134","-0.04309563","9.495404","none","0"
"19390611776534","3","0.20111294","-0.033518825","9.466674","none","0"
"19390631796065","3","0.20111294","-0.04309563","9.485827","none","0"
"19390651785079","3","0.20829555","-0.031124622","9.495404","none","0"
"19390671804610","3","0.19632454","-0.02633622","9.485827","none","0"
"19390691824141","3","0.20829555","-0.035913024","9.478644","none","0"
"19390711813155","3","0.21068975","-0.035913024","9.483433","none","0"
"19390731802169","3","0.20111294","-0.035913024","9.488221","none","0"
"19390751791182","3","0.19871874","-0.031124622","9.476251","none","0"
"19390771780196","3","0.20590134","-0.033518825","9.490616","none","0"
"19390791769210","3","0.20590134","-0.033518825","9.490616","none","0"
"19390811758223","3","0.20350714","-0.031124622","9.488221","none","0"
"19390831747237","3","0.20111294","-0.033518825","9.483433","none","0"
"19390851766768","3","0.20829555","-0.035913024","9.485827","none","0"
"19390871755782","3","0.20829555","-0.045489833","9.490616","none","0"
"19390891744796","3","0.20111294","-0.04070143","9.488221","none","0"
"19390911764327","3","0.20590134","-0.031124622","9.485827","none","0"
"19390931753340","3","0.19871874","-0.02873042","9.481039","none","0"
"19390951772872","3","0.19871874","-0.033518825","9.488221","none","0"
"19390971792403","3","0.19871874","-0.04070143","9.49301","none","0"
"19390991781417","3","0.20111294","-0.04070143","9.485827","none","0"
"19391011770430","3","0.20111294","-0.02633622","9.49301","none","0"
"19391031759444","3","0.20829555","-0.031124622","9.483433","none","0"
"19391051748458","3","0.20350714","-0.031124622","9.478644","none","0"
"19391071737471","3","0.20350714","-0.04070143","9.49301","none","0"
"19391091726485","3","0.20829555","-0.038307227","9.483433","none","0"
"19391111746016","3","0.19393034","-0.038307227","9.485827","none","0"
"19391131735030","3","0.19871874","-0.033518825","9.485827","none","0"
"19391151724044","3","0.20350714","-0.02873042","9.481039","none","0"
"19391171713057","3","0.20590134","-0.038307227","9.483433","none","0"
"19391191702071","3","0.19871874","-0.04309563","9.488221","none","0"
"19391211721602","3","0.20111294","-0.038307227","9.495404","none","0"
"19391231741133","3","0.20590134","-0.02873042","9.481039","none","0"
"19391251730147","3","0.20350714","-0.033518825","9.481039","none","0"
"19391271719161","3","0.20111294","-0.038307227","9.473856","none","0"
"19391291738692","3","0.19871874","-0.04070143","9.481039","none","0"
"19391311727706","3","0.20590134","-0.02873042","9.481039","none","0"
"19391331716719","3","0.20829555","-0.031124622","9.490616","none","0"
"19391351705733","3","0.20590134","-0.031124622","9.481039","none","0"
"19391371725264","3","0.20111294","-0.023942016","9.485827","none","0"
"19391391744796","3","0.20829555","-0.033518825","9.485827","none","0"
"19391411733809","3","0.20829555","-0.031124622","9.478644","none","0"
"19391431753340","3","0.21308395","-0.038307227","9.495404","none","0"
"19391451742354","3","0.20590134","-0.031124622","9.495404","none","0"
"19391471731368","3","0.21068975","-0.02633622","9.478644","none","0"
"19391491750899","3","0.20829555","-0.031124622","9.488221","none","0"
"19391511739913","3","0.20350714","-0.038307227","9.490616","none","0"
"19391531728926","3","0.20829555","-0.033518825","9.481039","none","0"
"19391551717940","3","0.20829555","-0.031124622","9.483433","none","0"
"19391571706954","3","0.19393034","-0.035913024","9.490616","none","0"
"19391591695967","3","0.20111294","-0.033518825","9.478644","none","0"
"19391611684981","3","0.20111294","-0.04070143","9.481039","none","0"
"19391631673995","3","0.20111294","-0.02873042","9.49301","none","0"
"19391651632491","3","0.20350714","-0.031124622","9.502586","sit down","0"
"19391671652022","3","0.20829555","-0.02873042","9.478644","sit down","0"
"19391691671553","3","0.19871874","-0.038307227","9.483433","sit down","0"
"19391711660567","3","0.20350714","-0.035913024","9.485827","sit down","0"
"19391731680098","3","0.21308395","-0.023942016","9.488221","sit down","0"
"19391751669112","3","0.20111294","-0.04309563","9.485827","sit down","0"
"19391771658126","3","0.20350714","-0.035913024","9.483433","sit down","0"
"19391791647139","3","0.20590134","-0.04070143","9.49301","sit down","0"
"19391811636153","3","0.20829555","-0.021547815","9.490616","sit down","0"
"19391831625167","3","0.20590134","-0.038307227","9.481039","sit down","0"
"19391851644698","3","0.20111294","-0.04070143","9.483433","sit down","0"
"19391871633712","3","0.20111294","-0.035913024","9.490616","sit down","0"
"19391891653243","3","0.20111294","-0.035913024","9.483433","sit down","0"
"19391911642257","3","0.21308395","-0.035913024","9.49301","sit down","0"
"19391931631270","3","0.21308395","-0.038307227","9.478644","sit down","0"
"19391951620284","3","0.21068975","-0.02873042","9.488221","sit down","0"
"19391971639815","3","0.21068975","-0.047884032","9.49301","sit down","0"
"19391991628829","3","0.20829555","-0.035913024","9.478644","sit down","0"
"19392011617842","3","0.21308395","-0.035913024","9.485827","sit down","0"
"19392031606856","3","0.20350714","-0.038307227","9.49301","sit down","0"
"19392051595870","3","0.21068975","-0.031124622","9.481039","sit down","0"
"19392071584883","3","0.21068975","-0.04309563","9.481039","sit down","0"
"19392091573897","3","0.20350714","-0.045489833","9.488221","sit down","0"
"19392111562911","3","0.20829555","-0.04070143","9.497798","sit down","0"
"19392131551924","3","0.21308395","-0.038307227","9.483433","sit down","0"
"19392151540938","3","0.21308395","-0.035913024","9.473856","sit down","0"
"19392171560469","3","0.21308395","-0.035913024","9.495404","sit down","0"
"19392191580001","3","0.20111294","-0.04070143","9.481039","sit down","0"
"19392211569014","3","0.20111294","-0.035913024","9.483433","sit down","0"
"19392231558028","3","0.20111294","-0.033518825","9.495404","sit down","0"
"19392251547042","3","0.20829555","-0.033518825","9.485827","sit down","0"
"19392271536055","3","0.20590134","-0.035913024","9.485827","sit down","0"
"19392291525069","3","0.19153613","-0.02873042","9.488221","sit down","0"
"19392311544600","3","0.20111294","-0.038307227","9.490616","sit down","0"
"19392331533614","3","0.19871874","-0.035913024","9.481039","sit down","0"
"19392351522628","3","0.20111294","-0.033518825","9.478644","sit down","0"
"19392371511641","3","0.20829555","-0.031124622","9.485827","sit down","0"
"19392391500655","3","0.20350714","-0.031124622","9.478644","sit down","0"
"19392411520186","3","0.19153613","-0.021547815","9.488221","sit down","0"
"19392431509200","3","0.20590134","-0.04070143","9.488221","sit down","0"
"19392451498214","3","0.20111294","-0.031124622","9.488221","sit down","0"
"19392471517745","3","0.20829555","-0.04070143","9.483433","sit down","0"
"19392491537276","3","0.20590134","-0.033518825","9.483433","sit down","0"
"19392511526290","3","0.19871874","-0.033518825","9.483433","sit down","0"
"19392531545821","3","0.19871874","-0.02633622","9.49301","sit down","0"
"19392551534835","3","0.20590134","-0.033518825","9.488221","sit down","0"
"19392571523848","3","0.19871874","-0.033518825","9.476251","sit down","0"
"19392591512862","3","0.20111294","-0.031124622","9.485827","sit down","0"
"19392611532393","3","0.20350714","-0.02633622","9.490616","sit down","0"
"19392631521407","3","0.20111294","-0.033518825","9.478644","sit down","0"
"19392651540938","3","0.20111294","-0.035913024","9.495404","sit down","0"
"19392671529952","3","0.20829555","-0.023942016","9.485827","sit down","0"
"19392691549483","3","0.20111294","-0.031124622","9.49301","sit down","0"
"19392711538497","3","0.21068975","-0.033518825","9.497798","sit down","0"
"19392731527510","3","0.20350714","-0.04070143","9.476251","sit down","0"
"19392751516524","3","0.20350714","-0.02633622","9.485827","sit down","0"
"19392771536055","3","0.20111294","-0.033518825","9.485827","sit down","0"
"19392791525069","3","0.20590134","-0.033518825","9.483433","sit down","0"
"19392811514083","3","0.22505496","-0.031124622","9.481039","sit down","0"
"19392831503096","3","0.18674773","-0.05267244","9.545682","sit down","0"
"19392851492110","3","0.2873042","-0.055066638","9.469068","sit down","0"
"19392871481124","3","0.29927522","-0.011971008","9.397242","sit down","0"
"19392891500655","3","0.22026655","-0.062249243","9.457097","sit down","0"
"19392911489669","3","0.062249243","0.08140286","9.334992","sit down","0"
"19392931478682","3","0.16519992","-0.08379706","9.64145","sit down","0"
"19392951498214","3","0.20590134","-0.009576807","9.734824","sit down","0"
"19392971487227","3","0.18435353","-0.023942016","9.291897","sit down","0"
"19392991506758","3","0.24660277","-0.038307227","9.6845455","sit down","0"
"19393011495772","3","0.21308395","-0.06703765","9.500193","sit down","0"
"19393031484786","3","0.21068975","-0.031124622","9.411607","sit down","0"
"19393051504317","3","0.21787235","-0.04309563","9.504981","sit down","0"
"19393071493331","3","0.20111294","-0.02873042","9.464279","sit down","0"
"19393091482344","3","0.22984336","-0.033518825","9.466674","sit down","0"
"19393111501876","3","0.22026655","-0.031124622","9.473856","sit down","0"
"19393131521407","3","0.22026655","-0.038307227","9.485827","sit down","0"
"19393151510421","3","0.20590134","-0.023942016","9.461885","sit down","0"
"19393171499434","3","0.20829555","-0.031124622","9.478644","sit down","0"
"19393191488448","3","0.22505496","-0.031124622","9.483433","sit down","0"
"19393211477462","3","0.22266077","-0.035913024","9.483433","sit down","0"
"19393231466475","3","0.22984336","-0.031124622","9.509769","sit down","0"
"19393251455489","3","0.22744916","-0.04309563","9.504981","sit down","0"
"19393271444503","3","0.22744916","-0.031124622","9.52174","sit down","0"
"19393291433516","3","0.22505496","-0.02633622","9.490616","sit down","0"
"19393311422530","3","0.22505496","-0.038307227","9.481039","sit down","0"
"19393331442061","3","0.22744916","-0.02873042","9.466674","sit down","0"
"19393351431075","3","0.24181437","-0.021547815","9.437943","sit down","0"
"19393371420089","3","0.23942018","-0.007182605","9.445126","sit down","0"
"19393391439620","3","0.23942018","-0.023942016","9.52174","sit down","0"
"19393411428633","3","0.22266077","-0.011971008","9.481039","sit down","0"
"19393431448165","3","0.23942018","-0.01436521","9.500193","sit down","0"
"19393451437178","3","0.22984336","-0.023942016","9.500193","sit down","0"
"19393471426192","3","0.22266077","-0.033518825","9.481039","sit down","0"
"19393491415206","3","0.22744916","-0.021547815","9.469068","sit down","0"
"19393511404219","3","0.24420857","-0.033518825","9.471462","sit down","0"
"19393531393233","3","0.22984336","-0.02873042","9.488221","sit down","0"
"19393551382247","3","0.22505496","-0.031124622","9.495404","sit down","0"
"19393571340743","3","0.24660277","-0.019153614","9.495404","sit down","0"
"19393591360274","3","0.24660277","-0.019153614","9.469068","sit down","0"
"19393611349288","3","0.22744916","-0.019153614","9.476251","sit down","0"
"19393631338301","3","0.22026655","-0.019153614","9.478644","sit down","0"
"19393651357833","3","0.23942018","-0.01436521","9.497798","sit down","0"
"19393671346846","3","0.22505496","-0.02633622","9.488221","sit down","0"
"19393691366378","3","0.22984336","-0.019153614","9.485827","sit down","0"
"19393711355391","3","0.24899697","-0.02633622","9.495404","sit down","0"
"19393731374923","3","0.22984336","-0.01436521","9.481039","sit down","0"
"19393751363936","3","0.23223756","-0.01436521","9.490616","sit down","0"
"19393771352950","3","0.24181437","-0.009576807","9.509769","sit down","0"
"19393791341964","3","0.23463176","-0.016759412","9.500193","sit down","0"
"19393811361495","3","0.22984336","-0.016759412","9.473856","sit down","0"
"19393831350508","3","0.23942018","-0.011971008","9.485827","sit down","0"
"19393851339522","3","0.22744916","-0.019153614","9.466674","sit down","0"
"19393871328536","3","0.23463176","-0.021547815","9.457097","sit down","0"
"19393891348067","3","0.23702596","-0.02873042","9.483433","sit down","0"
"19393911337081","3","0.23223756","-0.031124622","9.478644","sit down","0"
"19393931326094","3","0.24420857","-0.009576807","9.476251","sit down","0"
"19393951315108","3","0.24181437","-0.02633622","9.483433","sit down","0"
"19393971304122","3","0.24181437","-0.019153614","9.485827","sit down","0"
"19393991293135","3","0.24420857","-0.023942016","9.485827","sit down","0"
"19394011282149","3","0.24181437","-0.01436521","9.490616","sit down","0"
"19394031271163","3","0.24420857","-0.02633622","9.473856","sit down","0"
"19394051290694","3","0.23702596","-0.021547815","9.488221","sit down","0"
"19394071279708","3","0.22984336","-0.02873042","9.476251","sit down","0"
"19394091299239","3","0.23463176","-0.019153614","9.488221","sit down","0"
"19394111257735","3","0.23463176","-0.01436521","9.490616","sit down","0"
"19394131277266","3","0.22984336","-0.02633622","9.488221","sit down","0"
"19394151266280","3","0.23702596","-0.023942016","9.488221","sit down","0"
"19394171255294","3","0.22744916","-0.021547815","9.485827","sit down","0"
"19394191274825","3","0.23463176","-0.02633622","9.481039","sit down","0"
"19394211294356","3","0.23942018","-0.02633622","9.469068","sit down","0"
"19394231313887","3","0.23463176","-0.011971008","9.488221","sit down","0"
"19394251302901","3","0.22744916","-0.02873042","9.481039","sit down","0"
"19394271291915","3","0.22744916","-0.023942016","9.483433","sit down","0"
"19394291280928","3","0.23702596","-0.01436521","9.488221","sit down","0"
"19394311269942","3","0.23223756","-0.021547815","9.49301","sit down","0"
"19394331258956","3","0.23223756","-0.011971008","9.473856","sit down","0"
"19394351247969","3","0.23223756","-0.016759412","9.473856","sit down","0"
"19394371236983","3","0.22984336","-0.021547815","9.488221","sit down","0"
"19394391225997","3","0.23463176","-0.019153614","9.483433","sit down","0"
"19394411215010","3","0.23463176","-0.035913024","9.471462","sit down","0"
"19394431204024","3","0.22505496","-0.021547815","9.483433","sit down","0"
"19394451193038","3","0.24181437","-0.009576807","9.471462","sit down","0"
"19394471182051","3","0.22505496","-0.031124622","9.485827","sit down","0"
"19394491171065","3","0.23223756","-0.035913024","9.473856","sit down","0"
"19394511160079","3","0.23463176","-0.007182605","9.488221","sit down","0"
"19394531179610","3","0.22984336","-0.02873042","9.473856","sit down","0"
"19394551168624","3","0.23223756","-0.019153614","9.485827","sit down","0"
"19394571188155","3","0.22984336","-0.02873042","9.490616","sit down","0"
"19394591177169","3","0.23223756","-0.0047884034","9.481039","sit down","0"
"19394611166182","3","0.23463176","-0.02873042","9.485827","sit down","0"
"19394631155196","3","0.23463176","-0.021547815","9.497798","sit down","0"
"19394651174727","3","0.22744916","-0.031124622","9.483433","sit down","0"
"19394671163741","3","0.22984336","-0.019153614","9.488221","sit down","0"
"19394691152755","3","0.23702596","-0.033518825","9.481039","sit down","0"
"19394711141768","3","0.23463176","-0.023942016","9.483433","sit down","0"
"19394731130782","3","0.23223756","-0.023942016","9.485827","sit down","0"
"19394751119796","3","0.22984336","-0.021547815","9.478644","sit down","0"
"19394771108809","3","0.23463176","-0.019153614","9.488221","sit down","0"
"19394791097823","3","0.22984336","-0.031124622","9.490616","sit down","0"
"19394811117354","3","0.23463176","-0.02873042","9.49301","sit down","0"
"19394831106368","3","0.22505496","-0.023942016","9.478644","sit down","0"
"19394851095382","3","0.22744916","-0.02633622","9.476251","sit down","0"
"19394871114913","3","0.22984336","-0.02633622","9.481039","sit down","0"
"19394891134444","3","0.22266077","-0.031124622","9.481039","sit down","0"
"19394911123458","3","0.22266077","-0.021547815","9.469068","sit down","0"
"19394931112471","3","0.22266077","-0.035913024","9.478644","sit down","0"
"19394951101485","3","0.23463176","-0.031124622","9.483433","sit down","0"
"19394971090499","3","0.22744916","-0.021547815","9.485827","sit down","0"
"19394991079512","3","0.23702596","-0.019153614","9.483433","sit down","0"
"19395011068526","3","0.23463176","-0.02633622","9.478644","sit down","0"
"19395031088057","3","0.22984336","-0.023942016","9.488221","sit down","0"
"19395051077071","3","0.22744916","-0.02633622","9.473856","sit down","0"
"19395071096602","3","0.23942018","-0.02633622","9.490616","sit down","0"
"19395091116133","3","0.22984336","-0.016759412","9.478644","sit down","0"
"19395111105147","3","0.24181437","-0.02873042","9.488221","sit down","0"
"19395131124678","3","0.22984336","-0.023942016","9.481039","sit down","0"
"19395151113692","3","0.23702596","-0.021547815","9.488221","sit down","0"
"19395171102706","3","0.22266077","-0.02873042","9.481039","sit down","0"
"19395191091719","3","0.23702596","-0.019153614","9.478644","sit down","0"
"19395211080733","3","0.22266077","-0.031124622","9.485827","sit down","0"
"19395231069747","3","0.23463176","-0.016759412","9.476251","sit down","0"
"19395251089278","3","0.22744916","-0.023942016","9.478644","sit down","0"
"19395271078292","3","0.23702596","-0.016759412","9.488221","sit down","0"
"19395291067305","3","0.22266077","-0.019153614","9.473856","sit down","0"
"19395311056319","3","0.22505496","-0.023942016","9.488221","sit down","0"
"19395331014815","3","0.23942018","-0.016759412","9.488221","sit down","0"
"19395351034346","3","0.23463176","-0.02633622","9.478644","sit down","0"
"19395371053878","3","0.23942018","-0.02873042","9.485827","sit down","0"
"19395391042891","3","0.22744916","-0.033518825","9.478644","sit down","0"
"19395411062423","3","0.23223756","-0.016759412","9.490616","sit down","0"
"19395431051436","3","0.22984336","-0.031124622","9.490616","sit down","0"
"19395451040450","3","0.24420857","-0.023942016","9.464279","sit down","0"
"19395471029464","3","0.23223756","-0.02633622","9.469068","sit down","0"
"19395491018477","3","0.23223756","-0.031124622","9.488221","sit down","0"
"19395511038008","3","0.24420857","-0.019153614","9.509769","sit down","0"
"19395531027022","3","0.22984336","-0.02873042","9.473856","sit down","0"
"19395551016036","3","0.23702596","-0.019153614","9.471462","sit down","0"
"19395571005049","3","0.22984336","-0.02633622","9.481039","sit down","0"
"19395590994063","3","0.23463176","-0.019153614","9.478644","sit down","0"
"19395610983077","3","0.22505496","-0.016759412","9.481039","sit down","0"
"19395630972090","3","0.22984336","-0.023942016","9.483433","sit down","0"
"19395650961104","3","0.22984336","-0.019153614","9.490616","lay down","0"
"19395670950118","3","0.22984336","-0.021547815","9.478644","lay down","0"
"19395690939132","3","0.22984336","-0.021547815","9.478644","lay down","0"
"19395710958663","3","0.22984336","-0.01436521","9.471462","lay down","0"
"19395730947676","3","0.22026655","-0.021547815","9.473856","lay down","0"
"19395750967208","3","0.22984336","-0.019153614","9.488221","lay down","0"
"19395770956221","3","0.22744916","-0.023942016","9.485827","lay down","0"
"19395790945235","3","0.22984336","-0.021547815","9.473856","lay down","0"
"19395810934249","3","0.23463176","-0.02633622","9.476251","lay down","0"
"19395830923262","3","0.23223756","-0.031124622","9.49301","lay down","0"
"19395850942794","3","0.22984336","-0.02873042","9.471462","lay down","0"
"19395870931807","3","0.23702596","-0.023942016","9.485827","lay down","0"
"19395890890303","3","0.22984336","-0.02633622","9.485827","lay down","0"
"19395910909835","3","0.22505496","-0.02633622","9.485827","lay down","0"
"19395930898848","3","0.24420857","-0.021547815","9.469068","lay down","0"
"19395950887862","3","0.22744916","-0.016759412","9.495404","lay down","0"
"19395970876876","3","0.24181437","-0.02873042","9.488221","lay down","0"
"19395990865889","3","0.22984336","-0.023942016","9.483433","lay down","0"
"19396010880637","3","0.23463176","-0.033518825","9.483433","lay down","0"
"19396030874434","3","0.22744916","-0.02873042","9.476251","lay down","0"
"19396050893965","3","0.23223756","-0.023942016","9.471462","lay down","0"
"19396070913497","3","0.22744916","-0.02873042","9.495404","lay down","0"
"19396090902510","3","0.23463176","-0.019153614","9.488221","lay down","0"
"19396110891524","3","0.23463176","-0.031124622","9.481039","lay down","0"
"19396130911055","3","0.22505496","-0.016759412","9.502586","lay down","0"
"19396150900069","3","0.22505496","-0.031124622","9.481039","lay down","0"
"19396170889083","3","0.22505496","-0.016759412","9.476251","lay down","0"
"19396190878096","3","0.23463176","-0.023942016","9.481039","lay down","0"
"19396210867110","3","0.22744916","-0.033518825","9.452309","lay down","0"
"19396230856124","3","0.22744916","-0.031124622","9.471462","lay down","0"
"19396250875655","3","0.23463176","-0.02633622","9.471462","lay down","0"
"19396270864669","3","0.21308395","-0.02873042","9.464279","lay down","0"
"19396290853682","3","0.22026655","-0.016759412","9.495404","lay down","0"
"19396310842696","3","0.23223756","-0.019153614","9.488221","lay down","0"
"19396330862227","3","0.22026655","-0.038307227","9.481039","lay down","0"
"19396350851241","3","0.20590134","-0.02873042","9.461885","lay down","0"
"19396370840255","3","0.23942018","-0.019153614","9.459491","lay down","0"
"19396390859786","3","0.21787235","-0.019153614","9.485827","lay down","0"
"19396410848799","3","0.21308395","-0.02873042","9.461885","lay down","0"
"19396430837813","3","0.24420857","-0.050278235","9.488221","lay down","0"
"19396450857344","3","0.25139117","-0.045489833","9.485827","lay down","0"
"19396470846358","3","0.20350714","-0.047884032","9.502586","lay down","0"
"19396490835372","3","0.21308395","-0.047884032","9.476251","lay down","0"
"19396510854903","3","0.260968","-0.038307227","9.466674","lay down","0"
"19396530874434","3","0.22505496","-0.038307227","9.469068","lay down","0"
"19396550863448","3","0.23223756","-0.05746084","9.49301","lay down","0"
"19396570852462","3","0.21068975","-0.035913024","9.461885","lay down","0"
"19396590841475","3","0.25139117","-0.011971008","9.481039","lay down","0"
"19396610830489","3","0.18914193","-0.0047884034","9.461885","lay down","0"
"19396630819503","3","0.36870706","-0.059855044","9.409213","lay down","0"
"19396650803406","3","0.22026655","-0.10295067","9.483433","lay down","0"
"19396670791713","3","0.2753332","-0.04309563","9.730036","lay down","0"
"19396690800867","3","0.20111294","0.007182605","9.323022","lay down","0"
"19396710802598","3","0.23463176","-0.031124622","9.399636","lay down","0"
"19396730795089","3","0.23942018","-0.055066638","9.536105","lay down","0"
"19396750784102","3","0.22266077","-0.02633622","9.454702","lay down","0"
"19396770773098","3","0.23702596","-0.047884032","9.485827","lay down","0"
"19396790792647","3","0.23463176","-0.074220255","9.459491","lay down","0"
"19396810781661","3","0.23942018","-0.05746084","9.457097","lay down","0"
"19396830770674","3","0.25857377","-0.062249243","9.485827","lay down","0"
"19396850576423","3","0.22026655","-0.06943185","9.586384","lay down","0"
"19396870595954","3","0.23463176","-0.047884032","9.416395","lay down","0"
"19396890615485","3","0.22744916","-0.05267244","9.476251","lay down","0"
"19396910635016","3","0.23702596","-0.047884032","9.512163","lay down","0"
"19396930624030","3","0.24181437","-0.033518825","9.411607","lay down","0"
"19396950613044","3","0.21547815","-0.011971008","9.351752","lay down","0"
"19396970602057","3","0.24899697","-0.04309563","9.471462","lay down","0"
"19396990591071","3","0.23463176","-0.02633622","9.476251","lay down","0"
"19397010580085","3","0.2705448","0.01436521","9.160215","lay down","0"
"19397030569098","3","0.35434186","0.01436521","9.607931","lay down","0"
"19397050588630","3","0.30645782","-0.011971008","9.507375","lay down","0"
"19397070608161","3","0.260968","-0.08140286","9.287108","lay down","0"
"19397090597175","3","0.40462008","-0.009576807","9.682152","lay down","0"
"19397110586188","3","1.9560628","1.6160861","9.241618","lay down","0"
"19397130605719","3","-1.5634137","-0.8355764","9.198523","lay down","0"
"19397150594733","3","-0.1412579","0.82599956","12.088325","lay down","0"
"19397170583747","3","0.6631939","-0.08619126","7.81228","lay down","0"
"19397190572760","3","-0.22744916","0.48602295","8.760384","lay down","0"
"19397210592292","3","0.40940848","-0.33518824","11.032481","lay down","0"
"19397230581305","3","0.16998832","0.07182605","9.296685","lay down","0"
"19397250570319","3","0.4285621","-0.090979666","9.174581","lay down","0"
"19397270559333","3","0.17717093","-0.076614454","9.351752","lay down","0"
"19397290548346","3","0.20590134","-0.050278235","9.543288","lay down","0"
"19397310537360","3","0.19871874","-0.08140286","9.677363","lay down","0"
"19397330556891","3","0.22984336","-0.1340753","9.433155","lay down","0"
"19397350545905","3","0.23702596","-0.06703765","9.380483","lay down","0"
"19397370534919","3","0.22266077","-0.10295067","9.528923","lay down","0"
"19397390523932","3","0.22026655","-0.06943185","9.390059","lay down","0"
"19397410512946","3","0.22266077","-0.08619126","9.445126","lay down","0"
"19397430532477","3","0.2681506","-0.08140286","9.500193","lay down","0"
"19397450521491","3","0.2825158","-0.08140286","9.473856","lay down","0"
"19397470510505","3","0.30885202","-0.079008654","9.55047","lay down","0"
"19397490530036","3","0.28491","-0.08140286","9.526528","lay down","0"
"19397510519050","3","0.2873042","-0.05267244","9.514558","lay down","0"
"19397530508063","3","0.29688102","-0.06464344","9.421184","lay down","0"
"19397550497077","3","0.2801216","-0.047884032","9.397242","lay down","0"
"19397570486091","3","0.2681506","-0.08140286","9.471462","lay down","0"
"19397590475104","3","0.2705448","-0.062249243","9.423578","lay down","0"
"19397610494635","3","0.25857377","-0.079008654","9.516952","lay down","0"
"19397630514167","3","0.2753332","-0.095768064","9.490616","lay down","0"
"19397650503180","3","0.2681506","-0.04070143","9.406818","lay down","0"
"19397670553229","3","0.19871874","-0.09816227","9.624691","lay down","0"
"19397690572760","3","0.28491","-0.06943185","9.390059","lay down","0"
"19397710592292","3","0.260968","-0.05267244","9.507375","lay down","0"
"19397730581305","3","0.2681506","-0.05267244","9.41879","lay down","0"
"19397750600837","3","0.20111294","-0.1388637","9.61272","lay down","0"
"19397770589850","3","0.22266077","-0.06703765","9.533711","lay down","0"
"19397790609382","3","0.28491","-0.074220255","9.390059","lay down","0"
"19397810598395","3","0.320823","-0.019153614","9.524135","lay down","0"
"19397830617926","3","0.30885202","-0.093373865","9.545682","lay down","0"
"19397850637458","3","0.2705448","-0.08379706","9.449914","lay down","0"
"19397870626471","3","0.2801216","-0.062249243","9.507375","lay down","0"
"19397890615485","3","0.2633622","-0.055066638","9.411607","lay down","0"
"19397910573981","3","0.22984336","-0.06703765","9.43076","lay down","0"
"19397930593512","3","0.24899697","-0.06943185","9.452309","lay down","0"
"19397950582526","3","0.22744916","-0.076614454","9.478644","lay down","0"
"19397970571540","3","0.272939","-0.095768064","9.433155","lay down","0"
"19397990560553","3","0.2801216","-0.050278235","9.507375","lay down","0"
"19398010549567","3","0.25378537","-0.06703765","9.481039","lay down","0"
"19398030538581","3","0.24420857","-0.08140286","9.481039","lay down","0"
"19398050527594","3","0.29688102","-0.045489833","9.536105","lay down","0"
"19398070516608","3","0.30645782","-0.055066638","9.469068","lay down","0"
"19398090505622","3","0.30645782","-0.045489833","9.512163","lay down","0"
"19398110494635","3","0.2777274","-0.055066638","9.452309","lay down","0"
"19398130483649","3","0.2681506","-0.06703765","9.449914","lay down","0"
"19398150472663","3","0.29448682","-0.06464344","9.509769","lay down","0"
"19398170522712","3","0.25617957","-0.079008654","9.481039","lay down","0"
"19398190511725","3","0.25857377","-0.031124622","9.461885","lay down","0"
"19398210531257","3","0.2825158","-0.02873042","9.488221","lay down","0"
"19398230520270","3","0.25378537","-0.02633622","9.433155","lay down","0"
"19398250509284","3","0.23942018","-0.08140286","9.543288","lay down","0"
"19398270498298","3","0.29688102","-0.095768064","9.437943","lay down","0"
"19398290517829","3","0.3184288","-0.05267244","9.490616","lay down","0"
"19398310506842","3","0.29688102","-0.05267244","9.507375","lay down","0"
"19398330526374","3","0.2896984","-0.038307227","9.519346","lay down","0"
"19398350515387","3","0.29927522","-0.038307227","9.52174","lay down","0"
"19398370504401","3","0.2753332","-0.019153614","9.461885","lay down","0"
"19398390493415","3","0.260968","-0.05746084","9.454702","lay down","0"
"19398410482428","3","0.2896984","-0.06703765","9.454702","lay down","0"
"19398430471442","3","0.2681506","-0.09816227","9.445126","lay down","0"
"19398450460456","3","0.29448682","-0.08140286","9.454702","lay down","0"
"19398470449469","3","0.29688102","-0.088585466","9.483433","lay down","0"
"19398490438483","3","0.2825158","-0.074220255","9.488221","lay down","0"
"19398510427497","3","0.2896984","-0.06943185","9.49301","lay down","0"
"19398530416510","3","0.28491","-0.06464344","9.495404","lay down","0"
"19398550436042","3","0.2705448","-0.055066638","9.471462","lay down","0"
"19398570425055","3","0.2825158","-0.059855044","9.485827","lay down","0"
"19398590414069","3","0.28491","-0.055066638","9.488221","lay down","0"
"19398610403083","3","0.2873042","-0.05746084","9.471462","lay down","0"
"19398630392096","3","0.2896984","-0.07182605","9.478644","lay down","0"
"19398650411628","3","0.29209262","-0.05746084","9.469068","lay down","0"
"19398670400641","3","0.29209262","-0.074220255","9.466674","lay down","0"
"19398690389655","3","0.2873042","-0.062249243","9.466674","lay down","0"
"19398710409186","3","0.2801216","-0.076614454","9.478644","lay down","0"
"19398730398200","3","0.2825158","-0.07182605","9.485827","lay down","0"
"19398750417731","3","0.28491","-0.07182605","9.485827","lay down","0"
"19398770406745","3","0.2873042","-0.055066638","9.488221","lay down","0"
"19398790395759","3","0.28491","-0.06703765","9.473856","lay down","0"
"19398810384772","3","0.28491","-0.055066638","9.478644","lay down","0"
"19398830373786","3","0.2777274","-0.055066638","9.476251","lay down","0"
"19398850362800","3","0.2753332","-0.062249243","9.469068","lay down","0"
"19398870351813","3","0.28491","-0.062249243","9.490616","lay down","0"
"19398890340827","3","0.2753332","-0.047884032","9.471462","lay down","0"
"19398910329841","3","0.28491","-0.074220255","9.476251","lay down","0"
"19398930318854","3","0.2825158","-0.062249243","9.485827","lay down","0"
"19398950338385","3","0.2825158","-0.07182605","9.476251","lay down","0"
"19398970327399","3","0.2801216","-0.06464344","9.490616","lay down","0"
"19398990377448","3","0.2777274","-0.06703765","9.478644","lay down","0"
"19399010366462","3","0.2825158","-0.062249243","9.478644","lay down","0"
"19399030385993","3","0.2777274","-0.06464344","9.471462","lay down","0"
"19399050375007","3","0.2801216","-0.05267244","9.483433","lay down","0"
"19399070364020","3","0.28491","-0.06464344","9.469068","lay down","0"
"19399090353034","3","0.28491","-0.059855044","9.473856","lay down","0"
"19399110342048","3","0.2825158","-0.06703765","9.471462","lay down","0"
"19399130331061","3","0.29927522","-0.05746084","9.464279","lay down","0"
"19399150381110","3","0.29209262","-0.059855044","9.473856","lay down","0"
"19399170370124","3","0.2896984","-0.06464344","9.485827","lay down","0"
"19399190359137","3","0.2896984","-0.062249243","9.473856","lay down","0"
"19399210348151","3","0.2873042","-0.06703765","9.478644","lay down","0"
"19399230367682","3","0.29209262","-0.059855044","9.481039","lay down","0"
"19399250387214","3","0.2896984","-0.062249243","9.473856","lay down","0"
"19399270345710","3","0.29209262","-0.062249243","9.478644","lay down","0"
"19399290365241","3","0.29209262","-0.05746084","9.466674","lay down","0"
"19399310384772","3","0.2801216","-0.062249243","9.488221","lay down","0"
"19399330373786","3","0.2896984","-0.059855044","9.473856","lay down","0"
"19399350362800","3","0.29209262","-0.050278235","9.483433","lay down","0"
"19399370412848","3","0.2825158","-0.06464344","9.481039","lay down","0"
"19399390401862","3","0.29209262","-0.059855044","9.481039","lay down","0"
"19399410390876","3","0.28491","-0.062249243","9.478644","lay down","0"
"19399430410407","3","0.28491","-0.06464344","9.49301","lay down","0"
"19399450368903","3","0.2825158","-0.06703765","9.478644","lay down","0"
"19399470388434","3","0.29688102","-0.055066638","9.476251","lay down","0"
"19399490377448","3","0.2873042","-0.06464344","9.476251","lay down","0"
"19399510366462","3","0.2896984","-0.07182605","9.481039","lay down","0"
"19399530385993","3","0.29209262","-0.059855044","9.476251","lay down","0"
"19399550375007","3","0.2873042","-0.062249243","9.469068","lay down","0"
"19399570394538","3","0.28491","-0.055066638","9.483433","lay down","0"
"19399590383551","3","0.28491","-0.059855044","9.473856","lay down","0"
"19399610372565","3","0.2825158","-0.062249243","9.469068","lay down","0"
"19399630361579","3","0.2825158","-0.062249243","9.481039","lay down","0"
"19399650350592","3","0.2896984","-0.055066638","9.476251","sit up","0"
"19399670339606","3","0.28491","-0.047884032","9.478644","sit up","0"
"19399690359137","3","0.2825158","-0.05267244","9.478644","sit up","0"
"19399710348151","3","0.29209262","-0.062249243","9.473856","sit up","0"
"19399730367682","3","0.29448682","-0.062249243","9.471462","sit up","0"
"19399750356696","3","0.29209262","-0.055066638","9.476251","sit up","0"
"19399770345710","3","0.2873042","-0.062249243","9.476251","sit up","0"
"19399790395759","3","0.2801216","-0.059855044","9.481039","sit up","0"
"19399810384772","3","0.2777274","-0.05746084","9.483433","sit up","0"
"19399830404303","3","0.28491","-0.062249243","9.471462","sit up","0"
"19399850393317","3","0.2873042","-0.05267244","9.473856","sit up","0"
"19399870382331","3","0.2873042","-0.062249243","9.473856","sit up","0"
"19399890401862","3","0.2801216","-0.05267244","9.483433","sit up","0"
"19399910390876","3","0.29209262","-0.062249243","9.478644","sit up","0"
"19399930379889","3","0.2873042","-0.06943185","9.471462","sit up","0"
"19399950368903","3","0.2825158","-0.06703765","9.461885","sit up","0"
"19399970357917","3","0.2825158","-0.062249243","9.471462","sit up","0"
"19399990346930","3","0.2896984","-0.06464344","9.459491","sit up","0"
"19400010366462","3","0.29927522","-0.062249243","9.49301","sit up","0"
"19400030355475","3","0.29688102","-0.055066638","9.466674","sit up","0"
"19400050344489","3","0.30406362","-0.06703765","9.483433","sit up","0"
"19400070333503","3","0.2801216","-0.06464344","9.524135","sit up","0"
"19400090322516","3","0.29448682","-0.05746084","9.461885","sit up","0"
"19400110311530","3","0.2896984","-0.079008654","9.509769","sit up","0"
"19400130300544","3","0.25139117","-0.038307227","9.43076","sit up","0"
"19400150289557","3","0.28491","-0.062249243","9.524135","sit up","0"
"19400170278571","3","0.2825158","-0.076614454","9.442732","sit up","0"
"19400190267585","3","0.2801216","-0.05267244","9.466674","sit up","0"
"19400210256598","3","0.320823","-0.011971008","9.504981","sit up","0"
"19400230245612","3","0.2825158","-0.06464344","9.466674","sit up","0"
"19400250265143","3","0.28491","-0.06943185","9.485827","sit up","0"
"19400270254157","3","0.30645782","-0.047884032","9.476251","sit up","0"
"19400290243171","3","0.2896984","-0.047884032","9.516952","sit up","0"
"19400310232184","3","0.30166942","-0.050278235","9.469068","sit up","0"
"19400330221198","3","0.29688102","-0.06464344","9.512163","sit up","0"
"19400350210212","3","0.2801216","-0.05746084","9.473856","sit up","0"
"19400370199225","3","0.2801216","-0.05267244","9.495404","sit up","0"
"19400390218757","3","0.2777274","-0.059855044","9.471462","sit up","0"
"19400410207770","3","0.2753332","-0.055066638","9.457097","sit up","0"
"19400430196784","3","0.2896984","-0.06703765","9.490616","sit up","0"
"19400450185798","3","0.29448682","-0.059855044","9.464279","sit up","0"
"19400470174811","3","0.28491","-0.055066638","9.504981","sit up","0"
"19400490163825","3","0.2801216","-0.062249243","9.454702","sit up","0"
"19400510183356","3","0.2705448","-0.050278235","9.471462","sit up","0"
"19400530172370","3","0.2681506","-0.055066638","9.433155","sit up","0"
"19400550191901","3","0.29209262","-0.08619126","9.464279","sit up","0"
"19400570211432","3","0.2777274","-0.06943185","9.459491","sit up","0"
"19400590200446","3","0.29927522","-0.06464344","9.440337","sit up","0"
"19400610189460","3","0.29688102","-0.093373865","9.473856","sit up","0"
"19400630178473","3","0.33039984","-0.074220255","9.466674","sit up","0"
"19400650167487","3","0.35434186","-0.074220255","9.512163","sit up","0"
"19400670156501","3","0.31603462","-0.090979666","9.502586","sit up","0"
"19400690176032","3","0.2896984","-0.07182605","9.500193","sit up","0"
"19400710165046","3","0.33997664","-0.076614454","9.425972","sit up","0"
"19400730154059","3","0.25378537","-0.11731588","9.519346","sit up","0"
"19400750143073","3","0.2825158","-0.093373865","9.490616","sit up","0"
"19400770132087","3","0.320823","-0.074220255","9.471462","sit up","0"
"19400790121100","3","0.23942018","-0.062249243","9.49301","sit up","0"
"19400810110114","3","0.272939","-0.07182605","9.497798","sit up","0"
"19400830129645","3","0.2801216","-0.06703765","9.485827","sit up","0"
"19400850118659","3","0.272939","-0.08619126","9.442732","sit up","0"
"19400870107673","3","0.2896984","-0.090979666","9.461885","sit up","0"
"19400890096686","3","0.2896984","-0.08619126","9.495404","sit up","0"
"19400910085700","3","0.29209262","-0.088585466","9.457097","sit up","0"
"19400930074714","3","0.2825158","-0.088585466","9.435549","sit up","0"
"19400950063727","3","0.2801216","-0.076614454","9.442732","sit up","0"
"19400970113776","3","0.29688102","-0.090979666","9.500193","sit up","0"
"19400990102790","3","0.29688102","-0.088585466","9.504981","sit up","0"
"19401010122321","3","0.29688102","-0.088585466","9.495404","sit up","0"
"19401030111335","3","0.30166942","-0.08379706","9.485827","sit up","0"
"19401050130866","3","0.2825158","-0.07182605","9.473856","sit up","0"
"19401070119880","3","0.272939","-0.08379706","9.485827","sit up","0"
"19401090139411","3","0.2705448","-0.08379706","9.461885","sit up","0"
"19401110128425","3","0.2825158","-0.08379706","9.469068","sit up","0"
"19401130147956","3","0.2705448","-0.08140286","9.466674","sit up","0"
"19401150136969","3","0.24181437","-0.07182605","9.485827","sit up","0"
"19401170156501","3","0.25139117","-0.08140286","9.433155","sit up","0"
"19401190114997","3","0.272939","-0.090979666","9.43076","sit up","0"
"19401210134528","3","0.25857377","-0.079008654","9.478644","sit up","0"
"19401230154059","3","0.29688102","-0.10534488","9.469068","sit up","0"
"19401250173591","3","0.2825158","-0.076614454","9.481039","sit up","0"
"19401270193122","3","0.2896984","-0.09816227","9.452309","sit up","0"
"19401290212653","3","0.29209262","-0.09816227","9.43076","sit up","0"
"19401310201667","3","0.29688102","-0.079008654","9.512163","sit up","0"
"19401330221198","3","0.2896984","-0.076614454","9.593566","sit up","0"
"19401350210212","3","0.2801216","-0.06943185","9.557653","sit up","0"
"19401370199225","3","0.2873042","-0.062249243","9.519346","sit up","0"
"19401390188239","3","0.29688102","-0.06464344","9.619903","sit up","0"
"19401410177253","3","0.2753332","-0.05746084","9.435549","sit up","0"
"19401430166266","3","0.29448682","-0.023942016","9.44752","sit up","0"
"19401450185798","3","0.29927522","-0.047884032","9.404425","sit up","0"
"19401470174811","3","0.29927522","-0.045489833","9.440337","sit up","0"
"19401490163825","3","0.28491","-0.050278235","9.476251","sit up","0"
"19401510152839","3","0.30645782","-0.02873042","9.452309","sit up","0"
"19401530172370","3","0.2777274","-0.009576807","9.459491","sit up","0"
"19401550191901","3","0.30406362","-0.045489833","9.423578","sit up","0"
"19401570211432","3","0.2777274","-0.045489833","9.557653","sit up","0"
"19401590230964","3","0.25617957","-0.047884032","9.509769","sit up","0"
"19401610219977","3","0.29688102","-0.05746084","9.466674","sit up","0"
"19401630239509","3","0.28491","-0.055066638","9.473856","sit up","0"
"19401650228522","3","0.2777274","-0.059855044","9.442732","sit up","0"
"19401670217536","3","0.2777274","-0.062249243","9.485827","sit up","0"
"19401690237067","3","0.2753332","-0.04309563","9.461885","sit up","0"
"19401710226081","3","0.2705448","-0.047884032","9.540894","sit up","0"
"19401730215094","3","0.2777274","-0.05267244","9.41879","sit up","0"
"19401750204108","3","0.272939","-0.05267244","9.512163","sit up","0"
"19401770193122","3","0.2777274","-0.055066638","9.473856","sit up","0"
"19401790182135","3","0.2753332","-0.04309563","9.437943","sit up","0"
"19401810171149","3","0.2705448","-0.05746084","9.497798","sit up","0"
"19401830160163","3","0.2801216","-0.045489833","9.481039","sit up","0"
"19401850179694","3","0.2777274","-0.04309563","9.454702","sit up","0"
"19401870168708","3","0.2705448","-0.04070143","9.490616","sit up","0"
"19401890188239","3","0.2801216","-0.02873042","9.504981","sit up","0"
"19401910177253","3","0.30406362","-0.023942016","9.442732","sit up","0"
"19401930166266","3","0.2825158","-0.047884032","9.452309","sit up","0"
"19401950155280","3","0.2753332","-0.05267244","9.536105","sit up","0"
"19401970144294","3","0.29448682","-0.047884032","9.461885","sit up","0"
"19401990163825","3","0.2753332","-0.055066638","9.481039","sit up","0"
"19402010152839","3","0.2777274","-0.050278235","9.500193","sit up","0"
"19402030141852","3","0.25857377","-0.05267244","9.485827","sit up","0"
"19402050161384","3","0.2777274","-0.02873042","9.471462","sit up","0"
"19402070119880","3","0.2681506","-0.035913024","9.476251","sit up","0"
"19402090139411","3","0.2633622","-0.038307227","9.488221","sit up","0"
"19402110128425","3","0.2633622","-0.04070143","9.509769","sit up","0"
"19402130117438","3","0.2753332","-0.023942016","9.409213","sit up","0"
"19402150136969","3","0.2705448","-0.04309563","9.569624","sit up","0"
"19402170156501","3","0.2657564","-0.031124622","9.440337","sit up","0"
"19402190145514","3","0.2681506","-0.04070143","9.49301","sit up","0"
"19402210134528","3","0.2825158","-0.04309563","9.497798","sit up","0"
"19402230154059","3","0.2681506","-0.02873042","9.459491","sit up","0"
"19402250143073","3","0.2801216","-0.031124622","9.44752","sit up","0"
"19402270132087","3","0.2753332","-0.047884032","9.531317","sit up","0"
"19402290121100","3","0.29688102","-0.04070143","9.416395","sit up","0"
"19402310140632","3","0.2777274","-0.02873042","9.469068","sit up","0"
"19402330129645","3","0.29209262","-0.04070143","9.512163","sit up","0"
"19402350118659","3","0.2825158","-0.02633622","9.488221","sit up","0"
"19402370138190","3","0.2825158","-0.04070143","9.481039","sit up","0"
"19402390096686","3","0.2825158","-0.035913024","9.476251","sit up","0"
"19402410116217","3","0.2777274","-0.04070143","9.490616","sit up","0"
"19402430105231","3","0.2777274","-0.038307227","9.454702","sit up","0"
"19402450094245","3","0.2801216","-0.047884032","9.504981","sit up","0"
"19402470083259","3","0.28491","-0.038307227","9.466674","sit up","0"
"19402490072272","3","0.272939","-0.02873042","9.461885","sit up","0"
"19402510061286","3","0.2681506","-0.045489833","9.502586","sit up","0"
"19402530080817","3","0.2753332","-0.02873042","9.476251","sit up","0"
"19402550069831","3","0.272939","-0.035913024","9.464279","sit up","0"
"19402570058844","3","0.2657564","-0.033518825","9.497798","sit up","0"
"19402590047858","3","0.2633622","-0.035913024","9.49301","sit up","0"
"19402610036872","3","0.2657564","-0.02633622","9.500193","sit up","0"
"19402629995368","3","0.2705448","-0.04070143","9.512163","sit up","0"
"19402650014899","3","0.2681506","-0.035913024","9.454702","sit up","0"
"19402670003913","3","0.2753332","-0.04070143","9.488221","sit up","0"
"19402689992926","3","0.272939","-0.031124622","9.507375","sit up","0"
"19402709981940","3","0.2681506","-0.02873042","9.476251","sit up","0"
"19402729970954","3","0.2681506","-0.021547815","9.488221","sit up","0"
"19402749959967","3","0.2633622","-0.02873042","9.485827","sit up","0"
"19402769948981","3","0.2681506","-0.04070143","9.509769","sit up","0"
"19402789968512","3","0.2681506","-0.023942016","9.457097","sit up","0"
"19402809957526","3","0.2705448","-0.02873042","9.476251","sit up","0"
"19402829946540","3","0.2705448","-0.02633622","9.483433","sit up","0"
"19402849935553","3","0.2753332","-0.02873042","9.483433","sit up","0"
"19402869924567","3","0.28491","-0.038307227","9.466674","sit up","0"
"19402889944098","3","0.2777274","-0.038307227","9.478644","sit up","0"
"19402909933112","3","0.272939","-0.04309563","9.488221","sit up","0"
"19402929922126","3","0.2705448","-0.033518825","9.488221","sit up","0"
"19402949941657","3","0.2681506","-0.021547815","9.485827","sit up","0"
"19402969961188","3","0.2705448","-0.031124622","9.488221","sit up","0"
"19402989980719","3","0.2705448","-0.023942016","9.488221","sit up","0"
"19403009969733","3","0.25617957","-0.016759412","9.481039","sit up","0"
"19403029989264","3","0.2681506","-0.02873042","9.464279","sit up","0"
"19403049978278","3","0.260968","-0.019153614","9.478644","sit up","0"
"19403069967292","3","0.260968","-0.016759412","9.473856","sit up","0"
"19403089956305","3","0.2681506","-0.02633622","9.478644","sit up","0"
"19403109945319","3","0.2681506","-0.02873042","9.469068","sit up","0"
"19403129934333","3","0.2753332","-0.023942016","9.490616","sit up","0"
"19403149953864","3","0.2705448","-0.01436521","9.481039","sit up","0"
"19403169973395","3","0.2705448","-0.021547815","9.476251","sit up","0"
"19403189992926","3","0.2633622","-0.031124622","9.485827","sit up","0"
"19403209981940","3","0.2705448","-0.021547815","9.495404","sit up","0"
"19403230001471","3","0.2777274","-0.035913024","9.483433","sit up","0"
"19403249990485","3","0.2705448","-0.019153614","9.490616","sit up","0"
"19403269979499","3","0.2633622","-0.023942016","9.500193","sit up","0"
"19403289968512","3","0.2657564","-0.023942016","9.485827","sit up","0"
"19403309957526","3","0.2753332","-0.01436521","9.485827","sit up","0"
"19403329946540","3","0.2681506","-0.023942016","9.478644","sit up","0"
"19403349966071","3","0.2681506","-0.016759412","9.476251","sit up","0"
"19403369955085","3","0.2633622","-0.021547815","9.488221","sit up","0"
"19403389974616","3","0.272939","-0.023942016","9.481039","sit up","0"
"19403409994147","3","0.2657564","-0.023942016","9.478644","sit up","0"
"19403429983161","3","0.272939","-0.02633622","9.476251","sit up","0"
"19403449972175","3","0.2705448","-0.019153614","9.483433","sit up","0"
"19403469961188","3","0.2705448","-0.016759412","9.488221","sit up","0"
"19403489950202","3","0.2681506","-0.019153614","9.483433","sit up","0"
"19403509939216","3","0.25857377","-0.019153614","9.483433","sit up","0"
"19403529958747","3","0.2633622","-0.019153614","9.485827","sit up","0"
"19403549947760","3","0.2681506","-0.016759412","9.490616","sit up","0"
"19403569967292","3","0.260968","-0.011971008","9.478644","sit up","0"
"19403589956305","3","0.2705448","-0.021547815","9.466674","sit up","0"
"19403609975837","3","0.2633622","-0.016759412","9.473856","sit up","0"
"19403629964850","3","0.2705448","-0.021547815","9.490616","sit up","0"
"19403649953864","3","0.2705448","-0.016759412","9.476251","stand up","0"
"19403669942878","3","0.2705448","-0.011971008","9.478644","stand up","0"
"19403689931891","3","0.260968","-0.02873042","9.485827","stand up","0"
"19403709920905","3","0.2681506","-0.02633622","9.478644","stand up","0"
"19403729940436","3","0.2777274","-0.016759412","9.495404","stand up","0"
"19403749929450","3","0.2777274","-0.016759412","9.469068","stand up","0"
"19403769918464","3","0.2633622","-0.019153614","9.481039","stand up","0"
"19403789907477","3","0.2657564","-0.023942016","9.478644","stand up","0"
"19403809896491","3","0.2777274","-0.016759412","9.481039","stand up","0"
"19403829885505","3","0.2777274","-0.021547815","9.49301","stand up","0"
"19403849905036","3","0.2753332","-0.009576807","9.504981","stand up","0"
"19403869894050","3","0.2801216","-0.01436521","9.502586","stand up","0"
"19403889883063","3","0.2753332","-0.033518825","9.481039","stand up","0"
"19403909872077","3","0.2681506","-0.02873042","9.464279","stand up","0"
"19403929891608","3","0.28491","-0.02633622","9.452309","stand up","0"
"19403949911139","3","0.2777274","-0.016759412","9.459491","stand up","0"
"19403969961188","3","0.2801216","-0.031124622","9.531317","stand up","0"
"19403989950202","3","0.2753332","-0.04070143","9.497798","stand up","0"
"19404009939216","3","0.2777274","-0.009576807","9.445126","stand up","0"
"19404029928229","3","0.2681506","-0.019153614","9.461885","stand up","0"
"19404049917243","3","0.2705448","-0.019153614","9.485827","stand up","0"
"19404069906257","3","0.2681506","-0.021547815","9.478644","stand up","0"
"19404089895270","3","0.25617957","-0.02873042","9.478644","stand up","0"
"19404109884284","3","0.272939","-0.02633622","9.483433","stand up","0"
"19404129903815","3","0.2657564","-0.021547815","9.459491","stand up","0"
"19404149892829","3","0.2753332","-0.02633622","9.488221","stand up","0"
"19404169881842","3","0.2705448","-0.021547815","9.476251","stand up","0"
"19404189901374","3","0.2657564","-0.019153614","9.49301","stand up","0"
"19404209920905","3","0.2657564","-0.01436521","9.488221","stand up","0"
"19404229909919","3","0.260968","-0.019153614","9.469068","stand up","0"
"19404249898932","3","0.260968","-0.009576807","9.485827","stand up","0"
"19404269887946","3","0.2753332","-0.01436521","9.473856","stand up","0"
"19404289876960","3","0.2633622","-0.023942016","9.483433","stand up","0"
"19404309896491","3","0.2681506","-0.019153614","9.49301","stand up","0"
"19404329885505","3","0.2801216","-0.019153614","9.464279","stand up","0"
"19404349905036","3","0.25378537","-0.031124622","9.502586","stand up","0"
"19404369894050","3","0.2681506","-0.016759412","9.49301","stand up","0"
"19404389883063","3","0.260968","-0.019153614","9.481039","stand up","0"
"19404409902594","3","0.25139117","-0.02633622","9.49301","stand up","0"
"19404429891608","3","0.24899697","-0.019153614","9.500193","stand up","0"
"19404449880622","3","0.24899697","-0.01436521","9.464279","stand up","0"
"19404469900153","3","0.22984336","-0.035913024","9.473856","stand up","0"
"19404489919684","3","0.22984336","-0.02873042","9.576807","stand up","0"
"19404509908698","3","0.2657564","-0.033518825","9.572019","stand up","0"
"19404529928229","3","0.21787235","-0.038307227","9.394848","stand up","0"
"19404549917243","3","0.2705448","-0.033518825","9.629479","stand up","0"
"19404569906257","3","0.25139117","-0.033518825","9.397242","stand up","0"
"19404589895270","3","0.2873042","-0.023942016","9.370906","stand up","0"
"19404609884284","3","0.35434186","-0.06703765","9.672575","stand up","0"
"19404629873298","3","0.2705448","0.08619126","9.454702","stand up","0"
"19404649831794","3","0.23223756","-0.10295067","9.339781","stand up","0"
"19404669851325","3","0.23942018","-0.02873042","9.504981","stand up","0"
"19404689840339","3","0.18674773","-0.01436521","9.459491","stand up","0"
"19404709829352","3","0.22744916","-0.035913024","9.454702","stand up","0"
"19404729818366","3","0.23702596","-0.02633622","9.488221","stand up","0"
"19404749807380","3","0.23223756","-0.038307227","9.481039","stand up","0"
"19404769796393","3","0.23702596","-0.033518825","9.471462","stand up","0"
"19404789785407","3","0.23223756","-0.02873042","9.469068","stand up","0"
"19404809774421","3","0.23702596","-0.031124622","9.476251","stand up","0"
"19404829763434","3","0.24420857","-0.035913024","9.495404","stand up","0"
"19404849782966","3","0.23463176","-0.02633622","9.485827","stand up","0"
"19404869771979","3","0.23942018","-0.038307227","9.476251","stand up","0"
"19404889760993","3","0.23223756","-0.02873042","9.478644","stand up","0"
"19404909780524","3","0.22505496","-0.031124622","9.481039","stand up","0"
"19404929769538","3","0.24420857","-0.02633622","9.476251","stand up","0"
"19404949789069","3","0.23223756","-0.031124622","9.473856","stand up","0"
"19404969778083","3","0.22984336","-0.033518825","9.476251","stand up","0"
"19404989767096","3","0.23702596","-0.038307227","9.488221","stand up","0"
"19405009756110","3","0.22984336","-0.038307227","9.478644","stand up","0"
"19405029714606","3","0.23463176","-0.031124622","9.481039","stand up","0"
"19405049734137","3","0.23942018","-0.033518825","9.490616","stand up","0"
"19405069723151","3","0.23702596","-0.033518825","9.476251","stand up","0"
"19405089711976","3","0.23702596","-0.02873042","9.481039","stand up","0"
"19405109701178","3","0.22505496","-0.033518825","9.483433","stand up","0"
"19405129720710","3","0.23223756","-0.033518825","9.481039","stand up","0"
"19405149709723","3","0.22744916","-0.031124622","9.483433","stand up","0"
"19405169729255","3","0.24181437","-0.04070143","9.488221","stand up","0"
"19405189718268","3","0.23463176","-0.035913024","9.485827","stand up","0"
"19405209737800","3","0.24420857","-0.033518825","9.478644","stand up","0"
"19405229726813","3","0.22984336","-0.04070143","9.483433","stand up","0"
"19405249715827","3","0.23223756","-0.02633622","9.49301","stand up","0"
"19405269704841","3","0.23702596","-0.033518825","9.478644","stand up","0"
"19405289724372","3","0.23702596","-0.04070143","9.485827","stand up","0"
"19405309713385","3","0.23223756","-0.033518825","9.473856","stand up","0"
"19405329702399","3","0.24181437","-0.033518825","9.483433","stand up","0"
"19405349660895","3","0.24420857","-0.04070143","9.481039","stand up","0"
"19405369710944","3","0.23463176","-0.02873042","9.481039","stand up","0"
"19405389730475","3","0.23702596","-0.02633622","9.488221","stand up","0"
"19405409719489","3","0.24181437","-0.02633622","9.488221","stand up","0"
"19405429739020","3","0.23463176","-0.031124622","9.488221","stand up","0"
"19405449724284","3","0.22744916","-0.033518825","9.478644","stand up","0"
"19405469717048","3","0.22984336","-0.038307227","9.488221","stand up","0"
"19405489706061","3","0.23223756","-0.033518825","9.483433","stand up","0"
"19405509695075","3","0.22505496","-0.038307227","9.485827","stand up","0"
"19405529684089","3","0.22744916","-0.033518825","9.478644","stand up","0"
"19405549734137","3","0.23463176","-0.02873042","9.478644","stand up","0"
"19405569723151","3","0.23463176","-0.033518825","9.478644","stand up","0"
"19405589742682","3","0.23223756","-0.033518825","9.49301","stand up","0"
"19405609731696","3","0.23463176","-0.031124622","9.49301","stand up","0"
"19405629720710","3","0.23942018","-0.033518825","9.490616","stand up","0"
"19405649698245","3","0.23223756","-0.038307227","9.469068","stand up","0"
"19405669691591","3","0.23702596","-0.031124622","9.483433","stand up","0"
"19405689687751","3","0.24899697","-0.033518825","9.500193","stand up","0"
"19405709676764","3","0.23463176","-0.023942016","9.466674","stand up","0"
"19405729665778","3","0.23223756","-0.031124622","9.476251","stand up","0"
"19405749654792","3","0.22984336","-0.038307227","9.507375","stand up","0"
"19405769643805","3","0.23463176","-0.035913024","9.478644","stand up","0"
"19405789632819","3","0.23463176","-0.035913024","9.476251","stand up","0"
"19405809621833","3","0.23702596","-0.038307227","9.481039","stand up","0"
"19405829641364","3","0.23942018","-0.031124622","9.473856","stand up","0"
"19405849630378","3","0.23463176","-0.038307227","9.485827","stand up","0"
"19405869619391","3","0.22984336","-0.038307227","9.500193","stand up","0"
"19405889596207","3","0.23702596","-0.035913024","9.476251","stand up","0"
"19405909597419","3","0.23463176","-0.031124622","9.466674","stand up","0"
"19405929586432","3","0.22984336","-0.035913024","9.495404","stand up","0"
"19405949575446","3","0.23463176","-0.04070143","9.488221","stand up","0"
"19405969564460","3","0.22266077","-0.02873042","9.459491","stand up","0"
"19405989553473","3","0.22984336","-0.033518825","9.485827","stand up","0"
"19406009542487","3","0.23702596","-0.04309563","9.485827","stand up","0"
"19406029562018","3","0.23702596","-0.04070143","9.488221","stand up","0"
"19406049551032","3","0.23463176","-0.02633622","9.481039","stand up","0"
"19406069570563","3","0.23942018","-0.033518825","9.481039","stand up","0"
"19406089590094","3","0.22744916","-0.04309563","9.476251","stand up","0"
"19406109579108","3","0.22744916","-0.038307227","9.483433","stand up","0"
"19406129598639","3","0.24181437","-0.033518825","9.485827","stand up","0"
"19406149587653","3","0.22984336","-0.023942016","9.488221","stand up","0"
"19406169576667","3","0.23223756","-0.04070143","9.481039","stand up","0"
"19406189565680","3","0.23942018","-0.031124622","9.483433","stand up","0"
"19406209554694","3","0.23702596","-0.02633622","9.49301","stand up","0"
"19406229543708","3","0.23942018","-0.035913024","9.481039","stand up","0"
"19406249563239","3","0.23702596","-0.035913024","9.476251","stand up","0"
"19406269582770","3","0.23702596","-0.038307227","9.478644","stand up","0"
"19406289571784","3","0.23702596","-0.038307227","9.483433","stand up","0"
"19406309591315","3","0.24181437","-0.023942016","9.483433","stand up","0"
"19406329580329","3","0.23223756","-0.033518825","9.478644","stand up","0"
"19406349569342","3","0.23223756","-0.033518825","9.488221","stand up","0"
"19406369558356","3","0.23223756","-0.023942016","9.485827","stand up","0"
"19406389547370","3","0.23942018","-0.02633622","9.473856","stand up","0"
"19406409566901","3","0.22984336","-0.031124622","9.49301","stand up","0"
"19406429555915","3","0.23702596","-0.031124622","9.466674","stand up","0"
"19406449575446","3","0.23463176","-0.033518825","9.481039","stand up","0"
"19406469564460","3","0.23223756","-0.023942016","9.519346","stand up","0"
"19406489583991","3","0.23702596","-0.031124622","9.473856","stand up","0"
"19406509573005","3","0.23702596","-0.038307227","9.469068","stand up","0"
"19406529562018","3","0.22505496","-0.02873042","9.476251","stand up","0"
"19406549551032","3","0.23942018","-0.038307227","9.478644","stand up","0"
"19406569540046","3","0.24181437","-0.031124622","9.478644","stand up","0"
"19406589529059","3","0.23702596","-0.038307227","9.478644","stand up","0"
"19406609518073","3","0.23702596","-0.031124622","9.488221","stand up","0"
"19406629507087","3","0.24420857","-0.035913024","9.481039","stand up","0"
"19406649496100","3","0.23702596","-0.02633622","9.488221","stand up","0"
"19406669485114","3","0.23942018","-0.021547815","9.483433","stand up","0"
"19406689474128","3","0.23702596","-0.033518825","9.485827","stand up","0"
"19406709493659","3","0.23223756","-0.045489833","9.483433","stand up","0"
"19406729482014","3","0.23223756","-0.02633622","9.488221","stand up","0"
"19406749502204","3","0.22984336","-0.031124622","9.488221","stand up","0"
"19406769482091","3","0.24420857","-0.031124622","9.471462","stand up","0"
"19406789449714","3","0.23942018","-0.04070143","9.473856","stand up","0"
"19406809469245","3","0.22984336","-0.04070143","9.488221","stand up","0"
"19406829430552","3","0.23702596","-0.038307227","9.485827","stand up","0"
"19406849447272","3","0.22984336","-0.031124622","9.481039","stand up","0"
"19406869425321","3","0.23942018","-0.033518825","9.485827","stand up","0"
"19406889425300","3","0.23463176","-0.031124622","9.473856","stand up","0"
"19406909409437","3","0.24181437","-0.04070143","9.488221","stand up","0"
"19406929433844","3","0.23223756","-0.031124622","9.488221","stand up","0"
"19406949422858","3","0.23223756","-0.033518825","9.49301","stand up","0"
"19406969411872","3","0.22984336","-0.033518825","9.481039","stand up","0"
"19406989369514","3","0.24181437","-0.033518825","9.485827","stand up","0"
"19407009420417","3","0.23942018","-0.033518825","9.485827","stand up","0"
"19407029401590","3","0.23702596","-0.038307227","9.481039","stand up","0"
"19407049398444","3","0.23463176","-0.04070143","9.473856","stand up","0"
"19407069387458","3","0.23223756","-0.021547815","9.488221","stand up","0"
"19407089362629","3","0.23223756","-0.038307227","9.483433","stand up","0"
"19407109330321","3","0.23942018","-0.035913024","9.473856","stand up","0"
"19407129354499","3","0.24181437","-0.02873042","9.483433","stand up","0"
"19407149374030","3","0.22984336","-0.035913024","9.485827","stand up","0"
"19407169354360","3","0.23463176","-0.038307227","9.488221","stand up","0"
"19407189382575","3","0.22744916","-0.033518825","9.485827","stand up","0"
"19407209371589","3","0.23702596","-0.031124622","9.488221","stand up","0"
"19407229360602","3","0.23223756","-0.02873042","9.481039","stand up","0"
"19407249364744","3","0.23463176","-0.035913024","9.476251","stand up","0"
"19407269369147","3","0.23223756","-0.031124622","9.471462","stand up","0"
"19407289388678","3","0.22984336","-0.04309563","9.488221","stand up","0"
"19407309377692","3","0.22505496","-0.031124622","9.478644","stand up","0"
"19407329366706","3","0.22984336","-0.04070143","9.490616","stand up","0"
"19407349355719","3","0.22984336","-0.033518825","9.476251","stand up","0"
"19407369375251","3","0.23702596","-0.033518825","9.485827","stand up","0"
"19407389364264","3","0.22984336","-0.02633622","9.481039","stand up","0"
"19407409378321","3","0.23463176","-0.031124622","9.490616","stand up","0"
"19407429403327","3","0.22744916","-0.035913024","9.488221","stand up","0"
"19407449392341","3","0.24181437","-0.038307227","9.483433","stand up","0"
"19407469381354","3","0.23463176","-0.033518825","9.49301","stand up","0"
"19407489370368","3","0.23223756","-0.031124622","9.469068","stand up","0"
"19407509358436","3","0.24181437","-0.038307227","9.478644","stand up","0"
"19407529348395","3","0.22744916","-0.033518825","9.469068","stand up","0"
"19407549367926","3","0.23463176","-0.04309563","9.488221","stand up","0"
"19407569387458","3","0.23463176","-0.035913024","9.478644","stand up","0"
"19407589367936","3","0.23702596","-0.02633622","9.476251","stand up","0"
"19407609396003","3","0.22744916","-0.038307227","9.483433","stand up","0"
"19407629385016","3","0.22984336","-0.035913024","9.485827","stand up","0"
"19407669124284","3","0.23702596","-0.045489833","9.483433","none","1"
"19407689113297","3","0.22984336","-0.035913024","9.485827","none","1"
"19407709132828","3","0.22984336","-0.031124622","9.476251","none","1"
"19407729121842","3","0.23702596","-0.033518825","9.495404","none","1"
"19407749141373","3","0.22984336","-0.031124622","9.485827","none","1"
"19407769099869","3","0.23463176","-0.038307227","9.488221","none","1"
"19407789149918","3","0.22266077","-0.02873042","9.488221","none","1"
"19407809138932","3","0.23223756","-0.02873042","9.488221","none","1"
"19407829158463","3","0.23463176","-0.033518825","9.488221","none","1"
"19407849147477","3","0.22984336","-0.035913024","9.476251","none","1"
"19407869167008","3","0.23942018","-0.033518825","9.476251","none","1"
"19407889156022","3","0.24181437","-0.02633622","9.471462","none","1"
"19407909145035","3","0.23942018","-0.02633622","9.478644","none","1"
"19407929164567","3","0.22984336","-0.02873042","9.485827","none","1"
"19407949153580","3","0.23463176","-0.031124622","9.488221","none","1"
"19407969142594","3","0.22984336","-0.02873042","9.490616","none","1"
"19407989131608","3","0.23463176","-0.04070143","9.488221","none","1"
"19408009151139","3","0.23942018","-0.033518825","9.478644","none","1"
"19408029140153","3","0.23223756","-0.038307227","9.488221","none","1"
"19408049159684","3","0.23463176","-0.045489833","9.485827","none","1"
"19408069179215","3","0.22984336","-0.02873042","9.473856","none","1"
"19408089168229","3","0.23942018","-0.038307227","9.478644","none","1"
"19408109157242","3","0.22505496","-0.035913024","9.488221","none","1"
"19408129176774","3","0.23702596","-0.02633622","9.488221","none","1"
"19408149165787","3","0.23223756","-0.033518825","9.490616","none","1"
"19408169154801","3","0.23702596","-0.045489833","9.478644","none","1"
"19408189143815","3","0.23463176","-0.02873042","9.481039","none","1"
"19408209132828","3","0.23702596","-0.033518825","9.485827","none","1"
"19408229121842","3","0.23463176","-0.031124622","9.488221","none","1"
"19408249110856","3","0.23942018","-0.033518825","9.485827","none","1"
"19408269130387","3","0.24420857","-0.04070143","9.483433","none","1"
"19408289119401","3","0.22984336","-0.033518825","9.473856","none","1"
"19408309108414","3","0.22744916","-0.045489833","9.466674","none","1"
"19408329097428","3","0.24181437","-0.02873042","9.476251","none","1"
"19408349086442","3","0.22505496","-0.038307227","9.478644","none","1"
"19408369044938","3","0.23702596","-0.038307227","9.483433","none","1"
"19408389064469","3","0.22266077","-0.033518825","9.483433","none","1"
"19408409053483","3","0.23702596","-0.033518825","9.483433","none","1"
"19408429042496","3","0.24420857","-0.031124622","9.49301","none","1"
"19408449062028","3","0.22984336","-0.033518825","9.485827","none","1"
"19408469051041","3","0.23463176","-0.038307227","9.483433","none","1"
"19408489040055","3","0.23463176","-0.033518825","9.49301","none","1"
"19408509059586","3","0.23702596","-0.038307227","9.478644","none","1"
"19408529048600","3","0.23463176","-0.038307227","9.490616","none","1"
"19408549068131","3","0.22984336","-0.033518825","9.481039","none","1"
"19408569057145","3","0.23223756","-0.033518825","9.490616","none","1"
"19408589046159","3","0.23223756","-0.02873042","9.483433","none","1"
"19408609065690","3","0.23223756","-0.038307227","9.481039","none","1"
"19408629054703","3","0.22744916","-0.045489833","9.483433","none","1"
"19408649043717","3","0.23463176","-0.033518825","9.488221","none","1"
"19408669032731","3","0.23463176","-0.033518825","9.488221","none","1"
"19408689021744","3","0.23223756","-0.033518825","9.490616","none","1"
"19408708980241","3","0.23942018","-0.038307227","9.485827","none","1"
"19408728999772","3","0.23463176","-0.035913024","9.483433","none","1"
"19408748988785","3","0.24181437","-0.04070143","9.481039","none","1"
"19408769008317","3","0.24660277","-0.02633622","9.488221","none","1"
"19408788997330","3","0.23463176","-0.035913024","9.485827","none","1"
"19408809016862","3","0.23463176","-0.038307227","9.481039","none","1"
"19408829005875","3","0.23942018","-0.023942016","9.488221","none","1"
"19408848994889","3","0.23463176","-0.033518825","9.488221","none","1"
"19408868983903","3","0.23702596","-0.035913024","9.483433","none","1"
"19408888972916","3","0.22984336","-0.031124622","9.485827","none","1"
"19408908961930","3","0.24181437","-0.033518825","9.490616","none","1"
"19408928950944","3","0.23463176","-0.04070143","9.471462","none","1"
"19408948939957","3","0.23702596","-0.031124622","9.473856","none","1"
"19408968928971","3","0.24420857","-0.031124622","9.495404","none","1"
"19408988917985","3","0.22744916","-0.038307227","9.490616","none","1"
"19409008937516","3","0.23463176","-0.031124622","9.478644","none","1"
"19409028926530","3","0.22266077","-0.02873042","9.485827","none","1"
"19409048946061","3","0.23702596","-0.02873042","9.495404","none","1"
"19409068935075","3","0.23223756","-0.035913024","9.478644","none","1"
"19409088924088","3","0.22984336","-0.04309563","9.478644","none","1"
"19409108913102","3","0.23223756","-0.033518825","9.473856","none","1"
"19409128932633","3","0.22266077","-0.035913024","9.478644","none","1"
"19409148921647","3","0.24181437","-0.04309563","9.488221","none","1"
"19409168941178","3","0.24420857","-0.031124622","9.476251","none","1"
"19409188930192","3","0.23463176","-0.038307227","9.481039","none","1"
"19409208919205","3","0.23463176","-0.031124622","9.485827","none","1"
"19409228908219","3","0.22984336","-0.033518825","9.485827","none","1"
"19409248897233","3","0.22744916","-0.031124622","9.483433","none","1"
"19409268886246","3","0.22984336","-0.031124622","9.490616","none","1"
"19409288875260","3","0.23463176","-0.031124622","9.481039","none","1"
"19409308864274","3","0.23463176","-0.031124622","9.478644","none","1"
"19409328883805","3","0.23223756","-0.02633622","9.478644","none","1"
"19409348872819","3","0.23463176","-0.038307227","9.485827","none","1"
"19409368892350","3","0.22984336","-0.02873042","9.485827","none","1"
"19409388881364","3","0.22744916","-0.035913024","9.478644","none","1"
"19409408900895","3","0.23463176","-0.035913024","9.478644","none","1"
"19409428889909","3","0.23463176","-0.033518825","9.478644","none","1"
"19409448909440","3","0.22744916","-0.02873042","9.478644","none","1"
"19409468898453","3","0.22744916","-0.035913024","9.476251","none","1"
"19409488917985","3","0.23942018","-0.04309563","9.485827","none","1"
"19409508906998","3","0.23463176","-0.031124622","9.488221","none","1"
"19409528896012","3","0.22984336","-0.033518825","9.490616","none","1"
"19409548885026","3","0.24181437","-0.02873042","9.495404","none","1"
"19409568874039","3","0.22984336","-0.04070143","9.49301","none","1"
"19409588863053","3","0.22984336","-0.023942016","9.483433","none","1"
"19409608882584","3","0.24181437","-0.035913024","9.488221","none","1"
"19409628902116","3","0.22984336","-0.02633622","9.483433","none","1"
"19409648891129","3","0.22984336","-0.035913024","9.481039","none","1"
"19409668910660","3","0.23702596","-0.035913024","9.485827","none","1"
"19409688869157","3","0.22984336","-0.023942016","9.478644","none","1"
"19409708919205","3","0.24181437","-0.031124622","9.483433","none","1"
"19409728908219","3","0.23223756","-0.031124622","9.478644","none","1"
"19409748927750","3","0.22984336","-0.031124622","9.473856","none","1"
"19409768947282","3","0.22984336","-0.038307227","9.476251","none","1"
"19409788936295","3","0.23223756","-0.02873042","9.488221","none","1"
"19409808925309","3","0.23702596","-0.035913024","9.488221","none","1"
"19409828914323","3","0.23223756","-0.031124622","9.481039","none","1"
"19409848903336","3","0.23463176","-0.02633622","9.488221","none","1"
"19409868892350","3","0.24420857","-0.038307227","9.488221","none","1"
"19409888881364","3","0.23463176","-0.02633622","9.483433","none","1"
"19409908870377","3","0.23223756","-0.035913024","9.478644","none","1"
"19409928859391","3","0.23702596","-0.023942016","9.483433","none","1"
"19409948878922","3","0.22744916","-0.035913024","9.495404","none","1"
"19409968867936","3","0.23223756","-0.038307227","9.483433","none","1"
"19409988856950","3","0.23463176","-0.035913024","9.469068","none","1"
"19410008876481","3","0.23463176","-0.04070143","9.481039","none","1"
"19410028834977","3","0.23702596","-0.031124622","9.481039","none","1"
"19410048854508","3","0.23463176","-0.031124622","9.490616","none","1"
"19410068843522","3","0.23463176","-0.033518825","9.490616","none","1"
"19410088863053","3","0.22984336","-0.038307227","9.476251","none","1"
"19410108852067","3","0.23702596","-0.02873042","9.49301","none","1"
"19410128841080","3","0.23702596","-0.033518825","9.476251","none","1"
"19410148860612","3","0.24181437","-0.033518825","9.483433","none","1"
"19410168880143","3","0.23702596","-0.033518825","9.478644","none","1"
"19410188869157","3","0.23702596","-0.038307227","9.490616","none","1"
"19410208888688","3","0.23702596","-0.04070143","9.502586","none","1"
"19410228877701","3","0.23463176","-0.035913024","9.485827","none","1"
"19410248866715","3","0.24181437","-0.038307227","9.469068","none","1"
"19410268855729","3","0.22744916","-0.02873042","9.485827","none","1"
"19410288844742","3","0.23702596","-0.019153614","9.476251","none","1"
"19410308833756","3","0.23942018","-0.038307227","9.483433","none","1"
"19410328822770","3","0.23942018","-0.031124622","9.488221","none","1"
"19410348811784","3","0.23463176","-0.023942016","9.481039","none","1"
"19410368831315","3","0.23463176","-0.023942016","9.471462","none","1"
"19410388850846","3","0.22505496","-0.011971008","9.481039","none","1"
"19410408839860","3","0.24420857","-0.031124622","9.481039","none","1"
"19410428859391","3","0.23223756","-0.035913024","9.481039","none","1"
"19410448848405","3","0.23702596","-0.035913024","9.476251","none","1"
"19410468837418","3","0.24660277","-0.031124622","9.49301","none","1"
"19410488826432","3","0.24181437","-0.033518825","9.485827","none","1"
"19410508815446","3","0.23463176","-0.04070143","9.483433","none","1"
"19410528804459","3","0.23223756","-0.035913024","9.485827","none","1"
"19410548793473","3","0.23702596","-0.038307227","9.485827","none","1"
"19410568782487","3","0.24181437","-0.035913024","9.485827","none","1"
"19410588771500","3","0.23463176","-0.02873042","9.476251","none","1"
"19410608760514","3","0.24181437","-0.038307227","9.488221","none","1"
"19410628719010","3","0.24181437","-0.038307227","9.481039","none","1"
"19410648738541","3","0.23942018","-0.023942016","9.481039","none","1"
"19410668727555","3","0.23702596","-0.023942016","9.497798","none","1"
"19410688716569","3","0.23463176","-0.033518825","9.488221","none","1"
"19410708705582","3","0.23702596","-0.038307227","9.483433","none","1"
"19410728694596","3","0.23702596","-0.04070143","9.49301","none","1"
"19410748683610","3","0.23463176","-0.033518825","9.485827","none","1"
"19410768672623","3","0.23702596","-0.033518825","9.481039","none","1"
"19410788692155","3","0.24181437","-0.033518825","9.485827","none","1"
"19410808681168","3","0.24181437","-0.02633622","9.488221","none","1"
"19410828670182","3","0.24181437","-0.033518825","9.483433","none","1"
"19410848659196","3","0.24181437","-0.031124622","9.481039","none","1"
"19410868648209","3","0.23942018","-0.02873042","9.483433","none","1"
"19410888637223","3","0.23702596","-0.02633622","9.485827","none","1"
"19410908626237","3","0.25139117","-0.031124622","9.481039","none","1"
"19410928645768","3","0.23942018","-0.035913024","9.473856","none","1"
"19410948634782","3","0.22984336","-0.033518825","9.476251","none","1"
"19410968654313","3","0.23942018","-0.04309563","9.488221","none","1"
"19410988643326","3","0.24181437","-0.038307227","9.483433","none","1"
"19411008662858","3","0.23942018","-0.038307227","9.485827","none","1"
"19411028651871","3","0.23942018","-0.038307227","9.488221","none","1"
"19411048640885","3","0.22744916","-0.033518825","9.485827","none","1"
"19411068629899","3","0.23942018","-0.038307227","9.485827","none","1"
"19411088649430","3","0.23223756","-0.021547815","9.478644","none","1"
"19411108638444","3","0.23702596","-0.033518825","9.478644","none","1"
"19411128627457","3","0.23702596","-0.04070143","9.49301","none","1"
"19411148616471","3","0.23223756","-0.031124622","9.485827","none","1"
"19411168605485","3","0.23702596","-0.031124622","9.485827","none","1"
"19411188594498","3","0.23463176","-0.031124622","9.490616","none","1"
"19411208583512","3","0.24181437","-0.04070143","9.471462","none","1"
"19411228572526","3","0.24181437","-0.038307227","9.478644","none","1"
"19411248561539","3","0.24660277","-0.033518825","9.473856","none","1"
"19411268550553","3","0.23702596","-0.033518825","9.478644","none","1"
"19411288539567","3","0.22744916","-0.04070143","9.483433","none","1"
"19411308528580","3","0.25378537","-0.033518825","9.483433","none","1"
"19411328548112","3","0.23463176","-0.04070143","9.483433","none","1"
"19411348537125","3","0.23223756","-0.02633622","9.485827","none","1"
"19411368556657","3","0.23463176","-0.02873042","9.483433","none","1"
"19411388545670","3","0.22266077","-0.033518825","9.478644","none","1"
"19411408565201","3","0.22984336","-0.031124622","9.488221","none","1"
"19411428554215","3","0.23702596","-0.033518825","9.485827","none","1"
"19411448543229","3","0.23223756","-0.02873042","9.49301","none","1"
"19411468532242","3","0.23223756","-0.031124622","9.483433","none","1"
"19411488521256","3","0.24181437","-0.033518825","9.483433","none","1"
"19411508540787","3","0.23463176","-0.023942016","9.488221","none","1"
"19411528529801","3","0.23463176","-0.033518825","9.488221","none","1"
"19411548518815","3","0.24181437","-0.038307227","9.490616","none","1"
"19411568507828","3","0.23702596","-0.035913024","9.481039","none","1"
"19411588527360","3","0.23702596","-0.033518825","9.483433","none","1"
"19411608516373","3","0.22744916","-0.033518825","9.490616","none","1"
"19411628566422","3","0.23942018","-0.038307227","9.483433","sit down","1"
"19411648555436","3","0.24660277","-0.031124622","9.485827","sit down","1"
"19411668574967","3","0.23942018","-0.035913024","9.49301","sit down","1"
"19411688594498","3","0.23463176","-0.031124622","9.481039","sit down","1"
"19411708583512","3","0.24660277","-0.031124622","9.488221","sit down","1"
"19411728603043","3","0.24181437","-0.035913024","9.488221","sit down","1"
"19411748592057","3","0.23463176","-0.035913024","9.476251","sit down","1"
"19411768581071","3","0.24181437","-0.04070143","9.488221","sit down","1"
"19411788600602","3","0.22505496","-0.04070143","9.485827","sit down","1"
"19411808620133","3","0.23463176","-0.031124622","9.481039","sit down","1"
"19411828639664","3","0.23942018","-0.033518825","9.485827","sit down","1"
"19411848628678","3","0.22984336","-0.031124622","9.481039","sit down","1"
"19411868617692","3","0.23223756","-0.031124622","9.478644","sit down","1"
"19411888606705","3","0.23463176","-0.021547815","9.481039","sit down","1"
"19411908595719","3","0.23223756","-0.038307227","9.485827","sit down","1"
"19411928584733","3","0.23942018","-0.04070143","9.488221","sit down","1"
"19411948573746","3","0.22984336","-0.04070143","9.483433","sit down","1"
"19411968593278","3","0.23702596","-0.038307227","9.490616","sit down","1"
"19411988582291","3","0.23223756","-0.035913024","9.485827","sit down","1"
"19412008571305","3","0.23702596","-0.031124622","9.478644","sit down","1"
"19412028560319","3","0.23702596","-0.035913024","9.488221","sit down","1"
"19412048549332","3","0.23463176","-0.038307227","9.478644","sit down","1"
"19412068538346","3","0.23223756","-0.035913024","9.495404","sit down","1"
"19412088557877","3","0.23942018","-0.023942016","9.476251","sit down","1"
"19412108546891","3","0.22984336","-0.035913024","9.485827","sit down","1"
"19412128566422","3","0.22984336","-0.023942016","9.485827","sit down","1"
"19412148555436","3","0.24181437","-0.038307227","9.478644","sit down","1"
"19412168544450","3","0.23463176","-0.038307227","9.473856","sit down","1"
"19412188533463","3","0.23463176","-0.023942016","9.488221","sit down","1"
"19412208522477","3","0.24181437","-0.033518825","9.471462","sit down","1"
"19412228542008","3","0.23463176","-0.031124622","9.481039","sit down","1"
"19412248531022","3","0.22744916","-0.038307227","9.478644","sit down","1"
"19412268489518","3","0.23463176","-0.031124622","9.481039","sit down","1"
"19412288509049","3","0.24181437","-0.031124622","9.476251","sit down","1"
"19412308498063","3","0.23463176","-0.033518825","9.473856","sit down","1"
"19412328487076","3","0.23463176","-0.033518825","9.488221","sit down","1"
"19412348506608","3","0.23463176","-0.02633622","9.488221","sit down","1"
"19412368495621","3","0.23942018","-0.035913024","9.488221","sit down","1"
"19412388484635","3","0.23702596","-0.033518825","9.478644","sit down","1"
"19412408473649","3","0.22984336","-0.035913024","9.490616","sit down","1"
"19412428462662","3","0.23942018","-0.038307227","9.488221","sit down","1"
"19412448482194","3","0.23702596","-0.033518825","9.485827","sit down","1"
"19412468501725","3","0.23463176","-0.04070143","9.476251","sit down","1"
"19412488490739","3","0.23463176","-0.031124622","9.483433","sit down","1"
"19412508510270","3","0.24420857","-0.02633622","9.483433","sit down","1"
"19412528529801","3","0.24181437","-0.023942016","9.483433","sit down","1"
"19412548518815","3","0.24660277","-0.038307227","9.483433","sit down","1"
"19412568507828","3","0.23942018","-0.02873042","9.464279","sit down","1"
"19412588496842","3","0.22505496","-0.04070143","9.478644","sit down","1"
"19412608516373","3","0.22984336","-0.04309563","9.495404","sit down","1"
"19412628505387","3","0.23942018","-0.023942016","9.488221","sit down","1"
"19412648494401","3","0.22744916","-0.033518825","9.478644","sit down","1"
"19412668483414","3","0.23463176","-0.04309563","9.485827","sit down","1"
"19412688502946","3","0.22744916","-0.035913024","9.485827","sit down","1"
"19412708491959","3","0.24181437","-0.04070143","9.461885","sit down","1"
"19412728480973","3","0.23223756","-0.033518825","9.473856","sit down","1"
"19412748469987","3","0.24181437","-0.031124622","9.488221","sit down","1"
"19412768489518","3","0.25617957","-0.02633622","9.459491","sit down","1"
"19412788478532","3","0.24660277","-0.021547815","9.471462","sit down","1"
"19412808467545","3","0.2753332","-0.045489833","9.464279","sit down","1"
"19412828456559","3","0.25378537","-0.059855044","9.490616","sit down","1"
"19412848445573","3","0.2777274","-0.023942016","9.433155","sit down","1"
"19412868434586","3","0.28491","-0.033518825","9.409213","sit down","1"
"19412888423600","3","0.19871874","0.031124622","9.433155","sit down","1"
"19412908412614","3","0.22984336","-0.04070143","9.435549","sit down","1"
"19412928401627","3","0.33758244","-0.0047884034","9.442732","sit down","1"
"19412948390641","3","0.2633622","-0.033518825","9.512163","sit down","1"
"19412968410172","3","0.22744916","-0.02873042","9.552865","sit down","1"
"19412988399186","3","0.22984336","-0.04309563","9.653421","sit down","1"
"19413008388200","3","0.17956513","-0.06703765","9.533711","sit down","1"
"19413028377213","3","0.21547815","-0.038307227","9.504981","sit down","1"
"19413048396744","3","0.25857377","-0.045489833","9.485827","sit down","1"
"19413068385758","3","0.25617957","-0.02633622","9.459491","sit down","1"
"19413088374772","3","0.2633622","-0.023942016","9.454702","sit down","1"
"19413108363785","3","0.24420857","-0.035913024","9.445126","sit down","1"
"19413128383317","3","0.25617957","-0.021547815","9.461885","sit down","1"
"19413148372330","3","0.25378537","-0.023942016","9.488221","sit down","1"
"19413168391862","3","0.25857377","-0.02873042","9.497798","sit down","1"
"19413188380875","3","0.2777274","-0.031124622","9.473856","sit down","1"
"19413208369889","3","0.272939","-0.031124622","9.459491","sit down","1"
"19413228358903","3","0.2705448","-0.033518825","9.52174","sit down","1"
"19413248347916","3","0.2681506","-0.033518825","9.471462","sit down","1"
"19413268336930","3","0.28491","-0.02633622","9.516952","sit down","1"
"19413288356461","3","0.28491","-0.023942016","9.454702","sit down","1"
"19413308375992","3","0.29209262","-0.02873042","9.466674","sit down","1"
"19413328365006","3","0.29209262","-0.023942016","9.502586","sit down","1"
"19413348384537","3","0.29688102","-0.016759412","9.478644","sit down","1"
"19413368373551","3","0.2896984","0.0","9.49301","sit down","1"
"19413388362565","3","0.2896984","0.0","9.488221","sit down","1"
"19413408351578","3","0.29688102","0.0023942017","9.49301","sit down","1"
"19413428340592","3","0.28491","-0.007182605","9.478644","sit down","1"
"19413448360123","3","0.29688102","-0.009576807","9.49301","sit down","1"
"19413468349137","3","0.2825158","-0.011971008","9.461885","sit down","1"
"19413488368668","3","0.2825158","-0.007182605","9.483433","sit down","1"
"19413508357682","3","0.2873042","-0.019153614","9.49301","sit down","1"
"19413528346696","3","0.28491","-0.01436521","9.473856","sit down","1"
"19413548335709","3","0.2777274","-0.0047884034","9.452309","sit down","1"
"19413568324723","3","0.2825158","-0.009576807","9.500193","sit down","1"
"19413588313737","3","0.29209262","-0.009576807","9.481039","sit down","1"
"19413608302750","3","0.28491","-0.007182605","9.478644","sit down","1"
"19413628291764","3","0.2896984","-0.01436521","9.49301","sit down","1"
"19413648280778","3","0.30406362","-0.009576807","9.507375","sit down","1"
"19413668300309","3","0.29448682","-0.011971008","9.504981","sit down","1"
"19413688289323","3","0.30406362","-0.023942016","9.49301","sit down","1"
"19413708339371","3","0.30166942","-0.011971008","9.497798","sit down","1"
"19413728328385","3","0.30166942","-0.016759412","9.483433","sit down","1"
"19413748347916","3","0.28491","-0.007182605","9.485827","sit down","1"
"19413768336930","3","0.29448682","-0.01436521","9.476251","sit down","1"
"19413788325944","3","0.28491","-0.019153614","9.485827","sit down","1"
"19413808345475","3","0.29688102","-0.01436521","9.478644","sit down","1"
"19413828334489","3","0.29927522","-0.011971008","9.478644","sit down","1"
"19413848323502","3","0.28491","-0.01436521","9.495404","sit down","1"
"19413868312516","3","0.2873042","-0.009576807","9.481039","sit down","1"
"19413888332047","3","0.2801216","-0.016759412","9.485827","sit down","1"
"19413908321061","3","0.29448682","-0.009576807","9.485827","sit down","1"
"19413928340592","3","0.28491","-0.009576807","9.490616","sit down","1"
"19413948329606","3","0.2896984","-0.011971008","9.500193","sit down","1"
"19413968318619","3","0.29209262","-0.0047884034","9.481039","sit down","1"
"19413988307633","3","0.2896984","-0.007182605","9.469068","sit down","1"
"19414008296647","3","0.2873042","-0.016759412","9.500193","sit down","1"
"19414028285660","3","0.29688102","-0.011971008","9.481039","sit down","1"
"19414048274674","3","0.2777274","-0.01436521","9.485827","sit down","1"
"19414068263688","3","0.2873042","-0.011971008","9.478644","sit down","1"
"19414088252701","3","0.2896984","-0.016759412","9.478644","sit down","1"
"19414108272233","3","0.29209262","-0.021547815","9.488221","sit down","1"
"19414128291764","3","0.2825158","-0.007182605","9.481039","sit down","1"
"19414148280778","3","0.2896984","-0.007182605","9.476251","sit down","1"
"19414168269791","3","0.28491","-0.016759412","9.471462","sit down","1"
"19414188258805","3","0.2873042","-0.016759412","9.488221","sit down","1"
"19414208247819","3","0.2777274","-0.009576807","9.469068","sit down","1"
"19414228236832","3","0.29209262","-0.0047884034","9.483433","sit down","1"
"19414248225846","3","0.2873042","-0.016759412","9.490616","sit down","1"
"19414268245377","3","0.2873042","-0.0047884034","9.483433","sit down","1"
"19414288234391","3","0.2896984","-0.016759412","9.485827","sit down","1"
"19414308223405","3","0.2825158","-0.009576807","9.502586","sit down","1"
"19414328212418","3","0.2705448","-0.009576807","9.481039","sit down","1"
"19414348201432","3","0.2801216","-0.011971008","9.49301","sit down","1"
"19414368190446","3","0.2896984","-0.019153614","9.478644","sit down","1"
"19414388209977","3","0.2825158","-0.011971008","9.481039","sit down","1"
"19414408198991","3","0.2801216","-0.019153614","9.495404","sit down","1"
"19414428188004","3","0.28491","-0.011971008","9.481039","sit down","1"
"19414448207535","3","0.2705448","-0.01436521","9.471462","sit down","1"
"19414468196549","3","0.28491","-0.023942016","9.49301","sit down","1"
"19414488185563","3","0.2753332","-0.009576807","9.476251","sit down","1"
"19414508174576","3","0.2801216","-0.019153614","9.476251","sit down","1"
"19414528194108","3","0.28491","-0.01436521","9.490616","sit down","1"
"19414548183121","3","0.28491","-0.016759412","9.481039","sit down","1"
"19414568172135","3","0.2753332","-0.01436521","9.481039","sit down","1"
"19414588161149","3","0.2777274","-0.009576807","9.483433","sit down","1"
"19414608180680","3","0.2825158","-0.011971008","9.490616","sit down","1"
"19414628169694","3","0.28491","-0.019153614","9.481039","sit down","1"
"19414648158707","3","0.2777274","-0.021547815","9.483433","sit down","1"
"19414668147721","3","0.2801216","-0.011971008","9.495404","sit down","1"
"19414688167252","3","0.28491","-0.021547815","9.497798","sit down","1"
"19414708156266","3","0.2777274","-0.019153614","9.471462","sit down","1"
"19414728145280","3","0.2753332","-0.007182605","9.483433","sit down","1"
"19414748134293","3","0.2825158","-0.016759412","9.485827","sit down","1"
"19414768123307","3","0.2753332","-0.01436521","9.471462","sit down","1"
"19414788112321","3","0.2801216","-0.011971008","9.483433","sit down","1"
"19414808131852","3","0.2825158","-0.016759412","9.490616","sit down","1"
"19414828120866","3","0.2801216","-0.016759412","9.485827","sit down","1"
"19414848109879","3","0.2825158","-0.011971008","9.473856","sit down","1"
"19414868098893","3","0.28491","-0.009576807","9.485827","sit down","1"
"19414888118424","3","0.2801216","-0.01436521","9.497798","sit down","1"
"19414908137955","3","0.2777274","-0.0023942017","9.485827","sit down","1"
"19414928126969","3","0.2753332","-0.011971008","9.488221","sit down","1"
"19414948115983","3","0.2825158","-0.019153614","9.485827","sit down","1"
"19414968104996","3","0.2777274","-0.021547815","9.478644","sit down","1"
"19414988094010","3","0.2705448","-0.01436521","9.469068","sit down","1"
"19415008083024","3","0.2681506","-0.01436521","9.478644","sit down","1"
"19415028072037","3","0.28491","-0.019153614","9.473856","sit down","1"
"19415048091569","3","0.2825158","-0.021547815","9.481039","sit down","1"
"19415068111100","3","0.2753332","-0.011971008","9.478644","sit down","1"
"19415088100114","3","0.28491","-0.0047884034","9.481039","sit down","1"
"19415108119645","3","0.2777274","-0.011971008","9.481039","sit down","1"
"19415128108659","3","0.272939","-0.019153614","9.485827","sit down","1"
"19415148128190","3","0.2801216","-0.011971008","9.481039","sit down","1"
"19415168117203","3","0.2777274","-0.023942016","9.485827","sit down","1"
"19415188106217","3","0.272939","-0.011971008","9.473856","sit down","1"
"19415208095231","3","0.272939","-0.011971008","9.49301","sit down","1"
"19415228084244","3","0.272939","-0.023942016","9.49301","sit down","1"
"19415248103776","3","0.2753332","-0.019153614","9.483433","sit down","1"
"19415268092789","3","0.2825158","-0.009576807","9.483433","sit down","1"
"19415288081803","3","0.2705448","-0.016759412","9.485827","sit down","1"
"19415308070817","3","0.2753332","-0.016759412","9.483433","sit down","1"
"19415328059830","3","0.272939","-0.011971008","9.483433","sit down","1"
"19415348048844","3","0.272939","-0.011971008","9.481039","sit down","1"
"19415368037858","3","0.2705448","-0.011971008","9.483433","sit down","1"
"19415388026871","3","0.2753332","-0.021547815","9.481039","sit down","1"
"19415408015885","3","0.272939","-0.011971008","9.481039","sit down","1"
"19415428004899","3","0.2753332","-0.019153614","9.490616","sit down","1"
"19415448024430","3","0.2777274","-0.021547815","9.476251","sit down","1"
"19415468013444","3","0.2705448","-0.009576807","9.478644","sit down","1"
"19415488032975","3","0.2633622","-0.01436521","9.473856","sit down","1"
"19415508021989","3","0.2753332","-0.019153614","9.481039","sit down","1"
"19415528011002","3","0.2801216","-0.019153614","9.488221","sit down","1"
"19415548030534","3","0.2753332","-0.01436521","9.49301","sit down","1"
"19415568019547","3","0.2705448","-0.016759412","9.473856","sit down","1"
"19415588008561","3","0.2657564","-0.009576807","9.490616","sit down","1"
"19415607997575","3","0.2801216","-0.021547815","9.488221","sit down","1"
"19415628017106","3","0.2801216","-0.021547815","9.481039","lay down","1"
"19415648035584","3","0.2633622","-0.019153614","9.488221","lay down","1"
"19415668015277","3","0.2777274","-0.011971008","9.478644","lay down","1"
"19415688045182","3","0.2705448","-0.019153614","9.485827","lay down","1"
"19415708064713","3","0.2681506","-0.016759412","9.488221","lay down","1"
"19415728053727","3","0.2681506","-0.009576807","9.490616","lay down","1"
"19415748073258","3","0.2705448","-0.01436521","9.483433","lay down","1"
"19415768031754","3","0.25857377","-0.011971008","9.488221","lay down","1"
"19415788081803","3","0.2681506","-0.01436521","9.488221","lay down","1"
"19415808070817","3","0.2705448","-0.009576807","9.469068","lay down","1"
"19415828090348","3","0.2681506","-0.021547815","9.481039","lay down","1"
"19415848079362","3","0.272939","-0.023942016","9.49301","lay down","1"
"19415868068375","3","0.2705448","-0.023942016","9.488221","lay down","1"
"19415888087907","3","0.2705448","-0.02633622","9.476251","lay down","1"
"19415908076920","3","0.2753332","-0.007182605","9.490616","lay down","1"
"19415928065934","3","0.2705448","-0.02633622","9.473856","lay down","1"
"19415948052084","3","0.2681506","-0.021547815","9.473856","lay down","1"
"19415968043961","3","0.2705448","-0.031124622","9.502586","lay down","1"
"19415988032975","3","0.25857377","-0.009576807","9.485827","lay down","1"
"19416008052506","3","0.2633622","-0.02873042","9.469068","lay down","1"
"19416028071007","3","0.2657564","-0.031124622","9.490616","lay down","1"
"19416048091569","3","0.2777274","-0.01436521","9.49301","lay down","1"
"19416068080582","3","0.25857377","-0.023942016","9.471462","lay down","1"
"19416088100114","3","0.28491","-0.016759412","9.502586","lay down","1"
"19416108089127","3","0.2705448","-0.016759412","9.473856","lay down","1"
"19416128108659","3","0.2657564","-0.023942016","9.478644","lay down","1"
"19416148094276","3","0.2705448","-0.021547815","9.476251","lay down","1"
"19416168086622","3","0.2753332","-0.031124622","9.473856","lay down","1"
"19416188075700","3","0.2705448","-0.02633622","9.483433","lay down","1"
"19416208064713","3","0.260968","-0.021547815","9.49301","lay down","1"
"19416228053727","3","0.2705448","-0.02633622","9.49301","lay down","1"
"19416248042741","3","0.2753332","-0.021547815","9.49301","lay down","1"
"19416268027507","3","0.2753332","-0.021547815","9.473856","lay down","1"
"19416288020768","3","0.2705448","-0.021547815","9.485827","lay down","1"
"19416308009782","3","0.272939","-0.019153614","9.478644","lay down","1"
"19416327998795","3","0.2777274","-0.011971008","9.471462","lay down","1"
"19416347987809","3","0.2705448","-0.01436521","9.476251","lay down","1"
"19416367976823","3","0.2633622","-0.023942016","9.490616","lay down","1"
"19416387965836","3","0.2753332","-0.016759412","9.497798","lay down","1"
"19416407954850","3","0.2681506","-0.023942016","9.49301","lay down","1"
"19416427943864","3","0.272939","-0.033518825","9.483433","lay down","1"
"19416447932877","3","0.2705448","-0.02873042","9.466674","lay down","1"
"19416467921891","3","0.2777274","-0.02873042","9.483433","lay down","1"
"19416487941422","3","0.2633622","-0.021547815","9.497798","lay down","1"
"19416507960953","3","0.2753332","-0.035913024","9.488221","lay down","1"
"19416527949967","3","0.272939","-0.02633622","9.476251","lay down","1"
"19416547938981","3","0.2681506","-0.019153614","9.485827","lay down","1"
"19416567927994","3","0.25617957","-0.023942016","9.488221","lay down","1"
"19416587917008","3","0.260968","-0.023942016","9.411607","lay down","1"
"19416607906022","3","0.2633622","-0.019153614","9.466674","lay down","1"
"19416627895035","3","0.272939","-0.019153614","9.543288","lay down","1"
"19416647884049","3","0.2657564","-0.023942016","9.454702","lay down","1"
"19416667934098","3","0.2657564","-0.021547815","9.449914","lay down","1"
"19416687923112","3","0.2705448","-0.045489833","9.478644","lay down","1"
"19416707942643","3","0.25139117","0.0023942017","9.490616","lay down","1"
"19416727931657","3","0.2825158","-0.055066638","9.478644","lay down","1"
"19416747920670","3","0.25139117","-0.019153614","9.488221","lay down","1"
"19416767892776","3","0.30645782","-0.055066638","9.500193","lay down","1"
"19416787898698","3","0.260968","0.007182605","9.461885","lay down","1"
"19416807918229","3","0.30885202","-0.05267244","9.591172","lay down","1"
"19416827907242","3","0.31364042","-0.023942016","9.43076","lay down","1"
"19416847926774","3","0.2705448","-0.019153614","9.375694","lay down","1"
"19416867885270","3","0.2801216","-0.02873042","9.564836","lay down","1"
"19416887904801","3","0.2633622","-0.04309563","9.445126","lay down","1"
"19416907893815","3","0.260968","-0.05267244","9.449914","lay down","1"
"19416927882828","3","0.2801216","-0.033518825","9.509769","lay down","1"
"19416947871842","3","0.2705448","-0.038307227","9.41879","lay down","1"
"19416967860856","3","0.2825158","-0.035913024","9.442732","lay down","1"
"19416987849869","3","0.2873042","-0.05746084","9.56723","lay down","1"
"19417007838883","3","0.2825158","-0.04309563","9.488221","lay down","1"
"19417027858414","3","0.272939","-0.047884032","9.495404","lay down","1"
"19417047847428","3","0.2896984","-0.033518825","9.49301","lay down","1"
"19417067836442","3","0.2801216","-0.02633622","9.454702","lay down","1"
"19417087855973","3","0.272939","-0.02633622","9.44752","lay down","1"
"19417107875504","3","0.2777274","-0.02873042","9.495404","lay down","1"
"19417127864518","3","0.272939","-0.04070143","9.464279","lay down","1"
"19417147853532","3","0.2657564","-0.038307227","9.483433","lay down","1"
"19417167842545","3","0.2657564","-0.02873042","9.516952","lay down","1"
"19417187862076","3","0.2873042","-0.033518825","9.478644","lay down","1"
"19417207820573","3","0.25139117","-0.02633622","9.44752","lay down","1"
"19417227870621","3","0.29688102","-0.031124622","9.56723","lay down","1"
"19417247859635","3","0.2705448","-0.05267244","9.469068","lay down","1"
"19417267879166","3","0.2801216","-0.093373865","9.742006","lay down","1"
"19417287898698","3","0.2896984","-0.055066638","9.457097","lay down","1"
"19417307887711","3","0.2657564","-0.01436521","9.478644","lay down","1"
"19417327907242","3","0.31364042","-0.035913024","9.569624","lay down","1"
"19417347896256","3","0.30645782","-0.055066638","9.473856","lay down","1"
"19417367885270","3","0.2825158","-0.08619126","9.579201","lay down","1"
"19417387874284","3","0.2896984","-0.06943185","9.471462","lay down","1"
"19417407863297","3","0.22984336","-0.04070143","9.445126","lay down","1"
"19417427852311","3","0.2801216","-0.04309563","9.399636","lay down","1"
"19417447827237","3","0.2753332","-0.062249243","9.385271","lay down","1"
"19417467860856","3","0.23463176","-0.016759412","9.445126","lay down","1"
"19417487849869","3","0.28491","-0.059855044","9.516952","lay down","1"
"19417507869401","3","0.2705448","-0.06703765","9.437943","lay down","1"
"19417527858414","3","0.2777274","-0.076614454","9.44752","lay down","1"
"19417547908463","3","0.29209262","-0.08140286","9.540894","lay down","1"
"19417567897477","3","0.2753332","-0.090979666","9.519346","lay down","1"
"19417587917008","3","0.2825158","-0.06703765","9.466674","lay down","1"
"19417607906022","3","0.2873042","-0.08140286","9.469068","lay down","1"
"19417627916314","3","0.2657564","-0.06464344","9.495404","lay down","1"
"19417647943006","3","0.2896984","-0.06703765","9.459491","lay down","1"
"19417667925467","3","0.2753332","-0.076614454","9.459491","lay down","1"
"19417687953629","3","0.28491","-0.076614454","9.43076","lay down","1"
"19417707942643","3","0.2705448","-0.074220255","9.464279","lay down","1"
"19417727931657","3","0.25617957","-0.047884032","9.528923","lay down","1"
"19417747920670","3","0.28491","-0.062249243","9.514558","lay down","1"
"19417767909684","3","0.272939","-0.06703765","9.483433","lay down","1"
"19417787898698","3","0.29448682","-0.076614454","9.533711","lay down","1"
"19417807918229","3","0.25617957","-0.06464344","9.488221","lay down","1"
"19417827907242","3","0.2777274","-0.06464344","9.466674","lay down","1"
"19417847896256","3","0.2825158","-0.08619126","9.454702","lay down","1"
"19417867885270","3","0.2753332","-0.06943185","9.452309","lay down","1"
"19417887874284","3","0.29209262","-0.08379706","9.509769","lay down","1"
"19417907817698","3","0.2825158","-0.076614454","9.461885","lay down","1"
"19417927872698","3","0.29927522","-0.088585466","9.495404","lay down","1"
"19417947871842","3","0.29688102","-0.076614454","9.516952","lay down","1"
"19417967891373","3","0.30645782","-0.095768064","9.552865","lay down","1"
"19417987910905","3","0.29927522","-0.088585466","9.406818","lay down","1"
"19418007899918","3","0.2896984","-0.06943185","9.471462","lay down","1"
"19418027949967","3","0.2896984","-0.07182605","9.545682","lay down","1"
"19418047938981","3","0.29688102","-0.06703765","9.370906","lay down","1"
"19418067958512","3","0.30645782","-0.08140286","9.488221","lay down","1"
"19418087916313","3","0.31364042","-0.08140286","9.500193","lay down","1"
"19418107967057","3","0.2896984","-0.074220255","9.466674","lay down","1"
"19418127986588","3","0.2825158","-0.088585466","9.5385","lay down","1"
"19418147962775","3","0.30406362","-0.076614454","9.387665","lay down","1"
"19418167959736","3","0.2753332","-0.08619126","9.545682","lay down","1"
"19418187953629","3","0.2633622","-0.076614454","9.52174","lay down","1"
"19418207939198","3","0.2705448","-0.08140286","9.41879","lay down","1"
"19418227962174","3","0.29209262","-0.088585466","9.531317","lay down","1"
"19418247951188","3","0.28491","-0.10295067","9.478644","lay down","1"
"19418267940201","3","0.31124622","-0.1340753","9.528923","lay down","1"
"19418287929215","3","0.2705448","-0.1388637","9.500193","lay down","1"
"19418307948746","3","0.3184288","-0.09816227","9.722853","lay down","1"
"19418327937760","3","0.25617957","-0.10055647","9.363723","lay down","1"
"19418347944005","3","0.30166942","-0.1364695","9.634268","lay down","1"
"19418368007340","3","0.2681506","-0.019153614","9.26556","lay down","1"
"19418387961352","3","0.39025488","0.011971008","9.495404","lay down","1"
"19418407985367","3","0.19393034","-0.11252748","9.385271","lay down","1"
"19418427923082","3","0.260968","-0.10534488","9.469068","lay down","1"
"19418447948967","3","0.260968","-0.110133275","9.643845","lay down","1"
"19418467968428","3","0.23702596","-0.062249243","9.43076","lay down","1"
"19418488002457","3","0.35673606","-0.007182605","9.445126","lay down","1"
"19418507991471","3","0.39264908","-0.021547815","9.330204","lay down","1"
"19418527980485","3","0.31124622","-0.038307227","9.540894","lay down","1"
"19418547923544","3","0.30166942","-0.009576807","9.452309","lay down","1"
"19418567984159","3","0.32321724","-0.02633622","9.471462","lay down","1"
"19418587926851","3","0.31124622","-0.031124622","9.461885","lay down","1"
"19418607967057","3","0.34476504","-0.021547815","9.497798","lay down","1"
"19418627956071","3","0.31364042","-0.011971008","9.476251","lay down","1"
"19418647945084","3","0.29688102","0.0047884034","9.478644","lay down","1"
"19418667934098","3","0.36152446","-0.02633622","9.330204","lay down","1"
"19418687923112","3","0.28491","-0.02633622","9.490616","lay down","1"
"19418707912125","3","0.33279404","-0.033518825","9.555259","lay down","1"
"19418727931657","3","0.34955344","0.007182605","9.485827","lay down","1"
"19418747920670","3","0.36631286","0.009576807","9.540894","lay down","1"
"19418767909684","3","0.34955344","0.02633622","9.514558","lay down","1"
"19418787887159","3","0.32800564","0.019153614","9.471462","lay down","1"
"19418807918229","3","0.29209262","0.011971008","9.454702","lay down","1"
"19418827907242","3","0.2896984","-0.009576807","9.445126","lay down","1"
"19418847926774","3","0.28491","-0.009576807","9.442732","lay down","1"
"19418867880467","3","0.2896984","-0.016759412","9.449914","lay down","1"
"19418887935319","3","0.31364042","-0.009576807","9.476251","lay down","1"
"19418907954850","3","0.30885202","0.0","9.485827","lay down","1"
"19418927943864","3","0.31603462","-0.01436521","9.490616","lay down","1"
"19418947930928","3","0.33039984","-0.016759412","9.502586","lay down","1"
"19418967952409","3","0.32561144","-0.009576807","9.495404","lay down","1"
"19418987941422","3","0.33039984","0.009576807","9.502586","lay down","1"
"19419007883620","3","0.31603462","0.0023942017","9.464279","lay down","1"
"19419027919450","3","0.29927522","-0.0047884034","9.461885","lay down","1"
"19419047915005","3","0.30166942","-0.0023942017","9.457097","lay down","1"
"19419067927994","3","0.30166942","0.0047884034","9.473856","lay down","1"
"19419087893313","3","0.31124622","-0.009576807","9.481039","lay down","1"
"19419107936539","3","0.31603462","-0.016759412","9.483433","lay down","1"
"19419127925553","3","0.30885202","-0.007182605","9.483433","lay down","1"
"19419147914567","3","0.30645782","-0.009576807","9.500193","lay down","1"
"19419167939197","3","0.31364042","-0.01436521","9.497798","lay down","1"
"19419187953629","3","0.30166942","-0.011971008","9.490616","lay down","1"
"19419207942643","3","0.31603462","-0.0047884034","9.49301","lay down","1"
"19419227931657","3","0.30406362","-0.016759412","9.485827","lay down","1"
"19419247920670","3","0.30166942","-0.0047884034","9.469068","lay down","1"
"19419267940201","3","0.29448682","-0.007182605","9.471462","lay down","1"
"19419287959733","3","0.30166942","-0.009576807","9.473856","lay down","1"
"19419307948746","3","0.31124622","-0.011971008","9.476251","lay down","1"
"19419327897389","3","0.31603462","-0.01436521","9.488221","lay down","1"
"19419347907851","3","0.31124622","0.0","9.483433","lay down","1"
"19419367946305","3","0.31124622","-0.0047884034","9.481039","lay down","1"
"19419387935319","3","0.31124622","0.0","9.476251","lay down","1"
"19419407924332","3","0.30885202","-0.0047884034","9.483433","lay down","1"
"19419427943864","3","0.30166942","0.0023942017","9.476251","lay down","1"
"19419447932877","3","0.30406362","-0.0023942017","9.473856","lay down","1"
"19419467891373","3","0.31364042","-0.009576807","9.473856","lay down","1"
"19419487910905","3","0.30645782","-0.0023942017","9.481039","lay down","1"
"19419507899918","3","0.31124622","-0.007182605","9.488221","lay down","1"
"19419527858414","3","0.30645782","-0.0023942017","9.478644","lay down","1"
"19419547877946","3","0.30406362","-0.011971008","9.483433","lay down","1"
"19419567866959","3","0.31124622","-0.007182605","9.483433","lay down","1"
"19419587855973","3","0.30166942","0.0023942017","9.485827","lay down","1"
"19419607875504","3","0.3184288","-0.0047884034","9.481039","lay down","1"
"19419627864518","3","0.31603462","-0.007182605","9.476251","sit up","1"
"19419647853532","3","0.3184288","-0.009576807","9.476251","sit up","1"
"19419667778812","3","0.3184288","-0.011971008","9.483433","sit up","1"
"19419687831559","3","0.31603462","0.007182605","9.490616","sit up","1"
"19419707791812","3","0.320823","-0.0023942017","9.473856","sit up","1"
"19419727802851","3","0.30406362","-0.0047884034","9.488221","sit up","1"
"19419747776543","3","0.30406362","-0.023942016","9.473856","sit up","1"
"19419767818131","3","0.30406362","-0.007182605","9.490616","sit up","1"
"19419787807145","3","0.31124622","-0.0047884034","9.469068","sit up","1"
"19419807796159","3","0.30645782","-0.009576807","9.483433","sit up","1"
"19419827815690","3","0.30645782","0.0023942017","9.485827","sit up","1"
"19419847804703","3","0.30885202","-0.0023942017","9.483433","sit up","1"
"19419867789735","3","0.30885202","-0.0047884034","9.481039","sit up","1"
"19419887822620","3","0.30645782","-0.007182605","9.483433","sit up","1"
"19419907794235","3","0.31124622","-0.011971008","9.471462","sit up","1"
"19419927852311","3","0.31364042","-0.0047884034","9.488221","sit up","1"
"19419947835350","3","0.30406362","-0.0023942017","9.471462","sit up","1"
"19419967773658","3","0.31364042","0.0023942017","9.476251","sit up","1"
"19419987782889","3","0.31603462","-0.009576807","9.481039","sit up","1"
"19420007742158","3","0.30166942","-0.011971008","9.483433","sit up","1"
"19420027785158","3","0.31364042","-0.011971008","9.481039","sit up","1"
"19420047744889","3","0.30645782","0.0","9.478644","sit up","1"
"19420067733158","3","0.29927522","0.0","9.469068","sit up","1"
"19420087770312","3","0.29927522","0.02873042","9.428367","sit up","1"
"19420107705427","3","0.34715924","0.009576807","9.478644","sit up","1"
"19420127772965","3","0.32800564","-0.031124622","9.531317","sit up","1"
"19420147792496","3","0.29927522","-0.02873042","9.528923","sit up","1"
"19420167781510","3","0.2896984","-0.047884032","9.519346","sit up","1"
"19420187801041","3","0.2873042","-0.031124622","9.466674","sit up","1"
"19420207790055","3","0.29927522","-0.0023942017","9.457097","sit up","1"
"19420227710658","3","0.30166942","-0.0023942017","9.457097","sit up","1"
"19420247760466","3","0.30885202","0.0047884034","9.454702","sit up","1"
"19420267787614","3","0.30406362","-0.0047884034","9.495404","sit up","1"
"19420287723581","3","0.31124622","0.0023942017","9.476251","sit up","1"
"19420307765641","3","0.31364042","0.021547815","9.483433","sit up","1"
"19420327785172","3","0.29688102","0.01436521","9.473856","sit up","1"
"19420347774186","3","0.30166942","-0.0023942017","9.449914","sit up","1"
"19420367763200","3","0.32321724","-0.019153614","9.519346","sit up","1"
"19420387692273","3","0.2705448","-0.050278235","9.519346","sit up","1"
"19420407741227","3","0.28491","-0.0023942017","9.481039","sit up","1"
"19420427791276","3","0.2801216","0.023942016","9.466674","sit up","1"
"19420447740504","3","0.34237084","0.076614454","9.490616","sit up","1"
"19420467750004","3","0.32561144","0.07182605","9.459491","sit up","1"
"19420487788834","3","0.3184288","0.04309563","9.49301","sit up","1"
"19420507808366","3","0.30645782","0.009576807","9.519346","sit up","1"
"19420527797379","3","0.30166942","0.007182605","9.452309","sit up","1"
"19420547816910","3","0.31603462","0.0047884034","9.495404","sit up","1"
"19420567805924","3","0.31364042","0.01436521","9.485827","sit up","1"
