"Timestamp","Accuracy","Acceleration X","Acceleration Y","Acceleration Z","Label","Cycle"
"18691867986177","3","0.39264908","0.24181437","8.841787","sit down","0"
"18691887944673","3","0.10534488","0.007182605","9.346964","none","0"
"18691907872652","3","0.2896984","-0.021547815","9.67018","none","0"
"18691927861666","3","0.2825158","-0.0023942017","9.504981","none","0"
"18691947850679","3","0.2753332","0.031124622","9.519346","none","0"
"18691967809175","3","0.2705448","0.050278235","9.466674","none","0"
"18691987767671","3","0.24420857","0.033518825","9.375694","none","0"
"18692007695650","3","0.28491","0.035913024","9.442732","none","0"
"18692027684664","3","0.2681506","0.035913024","9.502586","none","0"
"18692047643160","3","0.2633622","0.02873042","9.471462","none","0"
"18692067601656","3","0.260968","0.038307227","9.457097","none","0"
"18692087560152","3","0.2681506","0.033518825","9.473856","none","0"
"18692107518648","3","0.2705448","0.04070143","9.461885","none","0"
"18692127446626","3","0.2657564","0.04309563","9.473856","none","0"
"18692147374605","3","0.2777274","0.031124622","9.469068","none","0"
"18692167363619","3","0.2777274","0.033518825","9.466674","none","0"
"18692187322115","3","0.2681506","0.038307227","9.464279","none","0"
"18692207280611","3","0.2633622","0.04309563","9.469068","none","0"
"18692227239107","3","0.2705448","0.038307227","9.461885","none","0"
"18692247228121","3","0.2657564","0.038307227","9.466674","none","0"
"18692267186617","3","0.25378537","0.045489833","9.476251","none","0"
"18692287145113","3","0.2705448","0.04309563","9.469068","none","0"
"18692307134126","3","0.2633622","0.033518825","9.469068","none","0"
"18692327092623","3","0.25857377","0.033518825","9.473856","none","0"
"18692347020601","3","0.2705448","0.050278235","9.461885","none","0"
"18692367009615","3","0.2681506","0.02873042","9.464279","none","0"
"18692386937593","3","0.2657564","0.038307227","9.469068","none","0"
"18692406896089","3","0.2705448","0.04309563","9.469068","none","0"
"18692426854585","3","0.2753332","0.033518825","9.461885","none","0"
"18692446843599","3","0.260968","0.038307227","9.464279","none","0"
"18692466802095","3","0.2681506","0.023942016","9.464279","none","0"
"18692486760591","3","0.25857377","0.02633622","9.457097","none","0"
"18692506749605","3","0.272939","0.035913024","9.464279","none","0"
"18692526708101","3","0.2801216","0.031124622","9.466674","none","0"
"18692546666597","3","0.272939","0.04070143","9.464279","none","0"
"18692566625093","3","0.2633622","0.04309563","9.473856","none","0"
"18692586614107","3","0.2705448","0.033518825","9.464279","none","0"
"18692606542085","3","0.2753332","0.019153614","9.466674","none","0"
"18692626500582","3","0.2681506","0.033518825","9.454702","none","0"
"18692646428560","3","0.2777274","0.04070143","9.454702","none","0"
"18692666417574","3","0.2633622","0.033518825","9.471462","none","0"
"18692686376070","3","0.2633622","0.031124622","9.459491","none","0"
"18692706334566","3","0.2681506","0.031124622","9.466674","none","0"
"18692726262544","3","0.272939","0.035913024","9.469068","none","0"
"18692746251558","3","0.2681506","0.038307227","9.471462","none","0"
"18692766210054","3","0.2705448","0.033518825","9.471462","none","0"
"18692786138033","3","0.2681506","0.033518825","9.461885","none","0"
"18692806127046","3","0.2705448","0.031124622","9.466674","none","0"
"18692826085542","3","0.2705448","0.038307227","9.469068","none","0"
"18692846044039","3","0.2705448","0.02633622","9.466674","none","0"
"18692866002535","3","0.2681506","0.031124622","9.464279","none","0"
"18692885961031","3","0.2657564","0.04070143","9.471462","none","0"
"18692905919527","3","0.25378537","0.038307227","9.471462","none","0"
"18692925847505","3","0.260968","0.033518825","9.466674","none","0"
"18692945775484","3","0.2681506","0.02633622","9.473856","none","0"
"18692965733980","3","0.25857377","0.038307227","9.461885","none","0"
"18692985722994","3","0.2657564","0.02633622","9.464279","none","0"
"18693005650972","3","0.2657564","0.045489833","9.457097","none","0"
"18693025609468","3","0.25857377","0.04070143","9.461885","none","0"
"18693045598482","3","0.2681506","0.045489833","9.473856","none","0"
"18693065556978","3","0.2753332","0.033518825","9.466674","none","0"
"18693085515474","3","0.2633622","0.031124622","9.466674","none","0"
"18693105473970","3","0.260968","0.035913024","9.469068","none","0"
"18693125432466","3","0.2657564","0.035913024","9.459491","none","0"
"18693145390962","3","0.260968","0.038307227","9.469068","none","0"
"18693165379976","3","0.2705448","0.02873042","9.466674","none","0"
"18693185307955","3","0.2681506","0.031124622","9.459491","none","0"
"18693205266451","3","0.2681506","0.04309563","9.473856","none","0"
"18693225224947","3","0.2705448","0.031124622","9.469068","none","0"
"18693245213960","3","0.2657564","0.035913024","9.459491","none","0"
"18693265172457","3","0.2633622","0.02873042","9.469068","none","0"
"18693285130953","3","0.2657564","0.038307227","9.454702","none","0"
"18693305119966","3","0.2681506","0.031124622","9.461885","none","0"
"18693325078462","3","0.2681506","0.038307227","9.464279","none","0"
"18693345006441","3","0.2705448","0.033518825","9.466674","none","0"
"18693364964937","3","0.2753332","0.033518825","9.457097","none","0"
"18693384953951","3","0.2681506","0.04309563","9.459491","none","0"
"18693404912447","3","0.2681506","0.033518825","9.457097","none","0"
"18693424870943","3","0.260968","0.04309563","9.459491","none","0"
"18693444829439","3","0.25857377","0.033518825","9.454702","none","0"
"18693464787935","3","0.2753332","0.038307227","9.464279","none","0"
"18693484776949","3","0.25378537","0.035913024","9.464279","none","0"
"18693504735445","3","0.2657564","0.031124622","9.471462","none","0"
"18693524663423","3","0.2753332","0.031124622","9.459491","none","0"
"18693544652437","3","0.2633622","0.035913024","9.469068","none","0"
"18693564580416","3","0.2681506","0.038307227","9.469068","none","0"
"18693584569429","3","0.2657564","0.047884032","9.469068","none","0"
"18693604527925","3","0.25617957","0.033518825","9.469068","none","0"
"18693624486421","3","0.2705448","0.033518825","9.466674","none","0"
"18693644475435","3","0.260968","0.031124622","9.476251","none","0"
"18693664433931","3","0.2681506","0.04070143","9.471462","none","0"
"18693684392427","3","0.2633622","0.038307227","9.471462","none","0"
"18693704381441","3","0.260968","0.04070143","9.469068","none","0"
"18693724339937","3","0.2657564","0.045489833","9.454702","none","0"
"18693744298433","3","0.260968","0.038307227","9.461885","none","0"
"18693764256929","3","0.2681506","0.04070143","9.459491","none","0"
"18693784245943","3","0.2753332","0.035913024","9.466674","none","0"
"18693804204439","3","0.2681506","0.035913024","9.464279","none","0"
"18693824162935","3","0.2633622","0.031124622","9.471462","none","0"
"18693844121431","3","0.25857377","0.035913024","9.461885","none","0"
"18693864049410","3","0.272939","0.031124622","9.461885","none","0"
"18693884038423","3","0.2657564","0.038307227","9.459491","none","0"
"18693903996919","3","0.2681506","0.035913024","9.464279","none","0"
"18693923955416","3","0.2657564","0.04309563","9.466674","none","0"
"18693943913912","3","0.25857377","0.038307227","9.464279","none","0"
"18693963841890","3","0.2633622","0.035913024","9.469068","none","0"
"18693983830904","3","0.25857377","0.02633622","9.464279","none","0"
"18694003758882","3","0.2705448","0.02873042","9.466674","none","0"
"18694023717378","3","0.2705448","0.031124622","9.466674","none","0"
"18694043645357","3","0.2633622","0.038307227","9.464279","none","0"
"18694063634371","3","0.2705448","0.035913024","9.464279","none","0"
"18694083592867","3","0.260968","0.04070143","9.469068","none","0"
"18694103551363","3","0.2633622","0.038307227","9.466674","none","0"
"18694123540376","3","0.2777274","0.04070143","9.461885","none","0"
"18694143498873","3","0.2681506","0.035913024","9.466674","none","0"
"18694163457369","3","0.2633622","0.023942016","9.469068","none","0"
"18694183415865","3","0.2753332","0.031124622","9.464279","none","0"
"18694203374361","3","0.2681506","0.02873042","9.464279","none","0"
"18694223332857","3","0.2633622","0.038307227","9.461885","none","0"
"18694243291353","3","0.2633622","0.031124622","9.461885","none","0"
"18694263219332","3","0.260968","0.031124622","9.473856","none","0"
"18694283208345","3","0.260968","0.038307227","9.466674","none","0"
"18694303136324","3","0.2681506","0.04309563","9.459491","none","0"
"18694323125337","3","0.260968","0.031124622","9.464279","none","0"
"18694343053316","3","0.2633622","0.035913024","9.461885","none","0"
"18694363042330","3","0.2681506","0.047884032","9.466674","none","0"
"18694383000826","3","0.2633622","0.031124622","9.461885","none","0"
"18694402959322","3","0.2681506","0.04309563","9.466674","none","0"
"18694422917818","3","0.2681506","0.02873042","9.466674","none","0"
"18694442845796","3","0.2633622","0.031124622","9.464279","none","0"
"18694462834810","3","0.2633622","0.031124622","9.466674","none","0"
"18694482762789","3","0.2753332","0.04070143","9.473856","none","0"
"18694502690767","3","0.260968","0.04309563","9.471462","none","0"
"18694522679781","3","0.272939","0.04070143","9.471462","none","0"
"18694542638277","3","0.260968","0.04309563","9.454702","none","0"
"18694562596773","3","0.2633622","0.035913024","9.469068","none","0"
"18694582585787","3","0.2633622","0.02873042","9.473856","none","0"
"18694602513765","3","0.2657564","0.02633622","9.469068","none","0"
"18694622472261","3","0.2633622","0.035913024","9.461885","none","0"
"18694642461275","3","0.2657564","0.031124622","9.471462","none","0"
"18694662419771","3","0.2681506","0.02873042","9.473856","none","0"
"18694682378267","3","0.272939","0.031124622","9.473856","none","0"
"18694702367281","3","0.272939","0.031124622","9.466674","none","0"
"18694722295259","3","0.2777274","0.045489833","9.485827","none","0"
"18694742284273","3","0.25617957","0.031124622","9.452309","none","0"
"18694762242769","3","0.2753332","0.035913024","9.471462","none","0"
"18694782231783","3","0.2681506","0.033518825","9.473856","none","0"
"18694802190279","3","0.25617957","0.033518825","9.466674","none","0"
"18694822148775","3","0.2657564","0.035913024","9.471462","none","0"
"18694842076753","3","0.2705448","0.04070143","9.471462","none","0"
"18694862065767","3","0.272939","0.038307227","9.466674","none","0"
"18694882024263","3","0.2657564","0.035913024","9.469068","none","0"
"18694901952242","3","0.2657564","0.045489833","9.461885","none","0"
"18694921941255","3","0.2681506","0.04309563","9.473856","none","0"
"18694941930269","3","0.2705448","0.04309563","9.461885","none","0"
"18694961888765","3","0.2657564","0.045489833","9.454702","none","0"
"18694981816744","3","0.2633622","0.035913024","9.466674","none","0"
"18695001805757","3","0.2705448","0.04309563","9.464279","none","0"
"18695021764253","3","0.2633622","0.033518825","9.464279","none","0"
"18695041722750","3","0.260968","0.033518825","9.469068","none","0"
"18695061681246","3","0.2753332","0.031124622","9.464279","none","0"
"18695081670259","3","0.260968","0.035913024","9.464279","none","0"
"18695101628755","3","0.2681506","0.031124622","9.461885","none","0"
"18695121587251","3","0.2633622","0.031124622","9.469068","none","0"
"18695141545748","3","0.260968","0.038307227","9.466674","none","0"
"18695161534761","3","0.25857377","0.02873042","9.461885","none","0"
"18695181493257","3","0.2705448","0.035913024","9.483433","none","0"
"18695201421236","3","0.2753332","0.023942016","9.464279","none","0"
"18695221410250","3","0.2681506","0.035913024","9.459491","none","0"
"18695241368746","3","0.2657564","0.033518825","9.469068","none","0"
"18695261296724","3","0.2753332","0.04070143","9.466674","none","0"
"18695281285738","3","0.2681506","0.035913024","9.461885","none","0"
"18695301274751","3","0.272939","0.031124622","9.466674","none","0"
"18695321233248","3","0.260968","0.038307227","9.466674","none","0"
"18695341191744","3","0.2753332","0.033518825","9.469068","none","0"
"18695361150240","3","0.2705448","0.02873042","9.473856","none","0"
"18695381139253","3","0.272939","0.035913024","9.473856","none","0"
"18695401097750","3","0.2681506","0.038307227","9.459491","none","0"
"18695421025728","3","0.2633622","0.04309563","9.469068","none","0"
"18695440984224","3","0.25617957","0.031124622","9.464279","none","0"
"18695460973238","3","0.272939","0.035913024","9.454702","none","0"
"18695480931734","3","0.2633622","0.04070143","9.461885","none","0"
"18695500859712","3","0.2657564","0.033518825","9.469068","none","0"
"18695520848726","3","0.2681506","0.033518825","9.461885","none","0"
"18695540776705","3","0.2633622","0.033518825","9.476251","none","0"
"18695560765718","3","0.2705448","0.038307227","9.471462","none","0"
"18695580693697","3","0.2705448","0.023942016","9.459491","none","0"
"18695600682710","3","0.2633622","0.045489833","9.464279","none","0"
"18695620641207","3","0.2753332","0.035913024","9.466674","none","0"
"18695640599703","3","0.2681506","0.031124622","9.469068","none","0"
"18695660527681","3","0.2705448","0.033518825","9.466674","none","0"
"18695680486177","3","0.2681506","0.035913024","9.466674","none","0"
"18695700475191","3","0.2681506","0.035913024","9.469068","none","0"
"18695720433687","3","0.2705448","0.035913024","9.464279","none","0"
"18695740361666","3","0.2705448","0.031124622","9.464279","none","0"
"18695760350679","3","0.2657564","0.035913024","9.471462","none","0"
"18695780309175","3","0.2681506","0.02873042","9.476251","none","0"
"18695800237154","3","0.2681506","0.035913024","9.473856","none","0"
"18695820195650","3","0.2705448","0.02633622","9.473856","sit down","0"
"18695840184664","3","0.260968","0.04070143","9.466674","sit down","0"
"18695860143160","3","0.2777274","0.035913024","9.457097","sit down","0"
"18695880101656","3","0.2633622","0.023942016","9.473856","sit down","0"
"18695900090669","3","0.2681506","0.031124622","9.466674","sit down","0"
"18695920049166","3","0.2657564","0.033518825","9.469068","sit down","0"
"18695940007662","3","0.2657564","0.02873042","9.461885","sit down","0"
"18695959966158","3","0.2681506","0.038307227","9.469068","sit down","0"
"18695979955171","3","0.2681506","0.033518825","9.469068","sit down","0"
"18695999913667","3","0.2633622","0.035913024","9.464279","sit down","0"
"18696019872164","3","0.2633622","0.031124622","9.473856","sit down","0"
"18696039800142","3","0.272939","0.035913024","9.461885","sit down","0"
"18696059758638","3","0.2753332","0.038307227","9.459491","sit down","0"
"18696079717134","3","0.260968","0.02873042","9.473856","sit down","0"
"18696099675630","3","0.2633622","0.035913024","9.469068","sit down","0"
"18696119634126","3","0.25857377","0.02873042","9.481039","sit down","0"
"18696139562105","3","0.2657564","0.031124622","9.469068","sit down","0"
"18696159551119","3","0.260968","0.035913024","9.469068","sit down","0"
"18696179509615","3","0.2705448","0.02873042","9.461885","sit down","0"
"18696199437593","3","0.2681506","0.035913024","9.476251","sit down","0"
"18696219426607","3","0.2633622","0.031124622","9.469068","sit down","0"
"18696239385103","3","0.2633622","0.02633622","9.457097","sit down","0"
"18696259343599","3","0.2681506","0.031124622","9.481039","sit down","0"
"18696279302095","3","0.2681506","0.023942016","9.466674","sit down","0"
"18696299260591","3","0.2657564","0.033518825","9.469068","sit down","0"
"18696319219087","3","0.272939","0.035913024","9.457097","sit down","0"
"18696339177584","3","0.2681506","0.038307227","9.473856","sit down","0"
"18696359136080","3","0.2633622","0.033518825","9.466674","sit down","0"
"18696379094576","3","0.2681506","0.031124622","9.466674","sit down","0"
"18696399053072","3","0.2705448","0.035913024","9.464279","sit down","0"
"18696418981050","3","0.272939","0.02633622","9.466674","sit down","0"
"18696438970064","3","0.260968","0.023942016","9.466674","sit down","0"
"18696458928560","3","0.2681506","0.033518825","9.464279","sit down","0"
"18696478887056","3","0.2633622","0.035913024","9.466674","sit down","0"
"18696498815035","3","0.25857377","0.02873042","9.473856","sit down","0"
"18696518773531","3","0.2633622","0.038307227","9.464279","sit down","0"
"18696538762544","3","0.2681506","0.033518825","9.473856","sit down","0"
"18696558690523","3","0.272939","0.02873042","9.478644","sit down","0"
"18696578618501","3","0.2705448","0.038307227","9.459491","sit down","0"
"18696598607515","3","0.2705448","0.02873042","9.459491","sit down","0"
"18696618566011","3","0.2705448","0.033518825","9.459491","sit down","0"
"18696638524507","3","0.272939","0.02633622","9.469068","sit down","0"
"18696658483003","3","0.25378537","0.038307227","9.469068","sit down","0"
"18696678410982","3","0.2657564","0.035913024","9.469068","sit down","0"
"18696698399996","3","0.272939","0.035913024","9.473856","sit down","0"
"18696718358492","3","0.2633622","0.033518825","9.466674","sit down","0"
"18696738316988","3","0.2633622","0.04309563","9.452309","sit down","0"
"18696758244966","3","0.2681506","0.023942016","9.466674","sit down","0"
"18696778233980","3","0.2657564","0.038307227","9.473856","sit down","0"
"18696798192476","3","0.2705448","0.02633622","9.452309","sit down","0"
"18696818150972","3","0.2681506","0.033518825","9.457097","sit down","0"
"18696838109468","3","0.25857377","0.033518825","9.471462","sit down","0"
"18696858067964","3","0.2777274","0.04070143","9.469068","sit down","0"
"18696878026460","3","0.260968","0.04309563","9.457097","sit down","0"
"18696897984957","3","0.2681506","0.04070143","9.469068","sit down","0"
"18696917943453","3","0.260968","0.038307227","9.471462","sit down","0"
"18696937871431","3","0.24660277","0.02873042","9.459491","sit down","0"
"18696957860445","3","0.260968","0.04070143","9.452309","sit down","0"
"18696977849459","3","0.24899697","0.045489833","9.564836","sit down","0"
"18696997807955","3","0.25139117","0.02633622","9.488221","sit down","0"
"18697017735933","3","0.34237084","0.038307227","9.3421755","sit down","0"
"18697037663912","3","0.2777274","0.02873042","9.43076","sit down","0"
"18697057652925","3","0.29448682","0.047884032","9.478644","sit down","0"
"18697077611421","3","-0.02873042","0.2896984","9.227253","sit down","0"
"18697097569917","3","0.34237084","-0.11971009","9.919178","sit down","0"
"18697117558931","3","0.37828386","0.1388637","9.469068","sit down","0"
"18697137517427","3","0.30166942","0.055066638","9.399636","sit down","0"
"18697157445406","3","0.4141969","0.016759412","9.959879","sit down","0"
"18697177434419","3","0.320823","-0.0047884034","9.579201","sit down","0"
"18697197392916","3","0.260968","0.023942016","9.461885","sit down","0"
"18697217351412","3","0.2681506","0.02633622","9.454702","sit down","0"
"18697237309908","3","0.24420857","0.038307227","9.356541","sit down","0"
"18697257298921","3","0.25617957","0.019153614","9.368511","sit down","0"
"18697277257417","3","0.28491","0.038307227","9.461885","sit down","0"
"18697297215914","3","0.2825158","0.04070143","9.394848","sit down","0"
"18697317174410","3","0.28491","0.023942016","9.43076","sit down","0"
"18697337102388","3","0.29927522","0.033518825","9.483433","sit down","0"
"18697357091402","3","0.30406362","0.02873042","9.478644","sit down","0"
"18697377049898","3","0.2777274","0.045489833","9.481039","sit down","0"
"18697397008394","3","0.30406362","0.02873042","9.516952","sit down","0"
"18697416966890","3","0.28491","0.031124622","9.452309","sit down","0"
"18697436925386","3","0.29448682","0.035913024","9.519346","sit down","0"
"18697456914400","3","0.30406362","0.04070143","9.504981","sit down","0"
"18697476872896","3","0.30645782","0.02873042","9.504981","sit down","0"
"18697496831392","3","0.29448682","0.04309563","9.481039","sit down","0"
"18697516789888","3","0.31124622","0.031124622","9.471462","sit down","0"
"18697536778902","3","0.2777274","0.02873042","9.481039","sit down","0"
"18697556737398","3","0.29209262","0.035913024","9.435549","sit down","0"
"18697576695894","3","0.29688102","0.035913024","9.44752","sit down","0"
"18697596654390","3","0.28491","0.031124622","9.464279","sit down","0"
"18697616612886","3","0.2896984","0.038307227","9.459491","sit down","0"
"18697636601900","3","0.2873042","0.023942016","9.461885","sit down","0"
"18697656560396","3","0.29688102","0.038307227","9.404425","sit down","0"
"18697676488375","3","0.29688102","0.035913024","9.473856","sit down","0"
"18697696477388","3","0.33758244","0.016759412","9.481039","sit down","0"
"18697716435884","3","0.2873042","0.059855044","9.52174","sit down","0"
"18697736394380","3","0.3184288","0.023942016","9.478644","sit down","0"
"18697756352876","3","0.29688102","0.05267244","9.469068","sit down","0"
"18697776280855","3","0.30406362","0.016759412","9.466674","sit down","0"
"18697796269869","3","0.30885202","0.04070143","9.464279","sit down","0"
"18697816228365","3","0.29927522","0.02873042","9.461885","sit down","0"
"18697836186861","3","0.29688102","0.04309563","9.452309","sit down","0"
"18697856145357","3","0.30166942","0.023942016","9.473856","sit down","0"
"18697876073335","3","0.29927522","0.031124622","9.452309","sit down","0"
"18697896062349","3","0.31124622","0.031124622","9.469068","sit down","0"
"18697915990328","3","0.31124622","0.035913024","9.457097","sit down","0"
"18697935979341","3","0.29927522","0.02633622","9.478644","sit down","0"
"18697955937837","3","0.31603462","0.02633622","9.485827","sit down","0"
"18697975896334","3","0.30406362","0.033518825","9.44752","sit down","0"
"18697995854830","3","0.30885202","0.038307227","9.466674","sit down","0"
"18698015813326","3","0.30885202","0.038307227","9.476251","sit down","0"
"18698035771822","3","0.30406362","0.038307227","9.483433","sit down","0"
"18698055699800","3","0.30166942","0.035913024","9.454702","sit down","0"
"18698075658296","3","0.29209262","0.033518825","9.476251","sit down","0"
"18698095647310","3","0.29927522","0.031124622","9.466674","sit down","0"
"18698115575289","3","0.29209262","0.033518825","9.473856","sit down","0"
"18698135564302","3","0.30166942","0.02633622","9.461885","sit down","0"
"18698155522798","3","0.30645782","0.038307227","9.457097","sit down","0"
"18698175450777","3","0.30645782","0.021547815","9.471462","sit down","0"
"18698195439791","3","0.30885202","0.035913024","9.485827","sit down","0"
"18698215367769","3","0.30166942","0.033518825","9.454702","sit down","0"
"18698235326265","3","0.29688102","0.021547815","9.461885","sit down","0"
"18698255315279","3","0.31124622","0.023942016","9.483433","sit down","0"
"18698275273775","3","0.29927522","0.02633622","9.478644","sit down","0"
"18698295262789","3","0.29688102","0.031124622","9.454702","sit down","0"
"18698315221285","3","0.29927522","0.038307227","9.464279","sit down","0"
"18698335210298","3","0.30406362","0.02873042","9.466674","sit down","0"
"18698355168794","3","0.31364042","0.035913024","9.454702","sit down","0"
"18698375096773","3","0.30406362","0.033518825","9.461885","sit down","0"
"18698395055269","3","0.29927522","0.038307227","9.471462","sit down","0"
"18698415013765","3","0.30406362","0.031124622","9.459491","sit down","0"
"18698435002779","3","0.30406362","0.02873042","9.478644","sit down","0"
"18698454930757","3","0.29448682","0.033518825","9.469068","sit down","0"
"18698474889253","3","0.29448682","0.031124622","9.466674","sit down","0"
"18698494878267","3","0.30406362","0.031124622","9.461885","sit down","0"
"18698514836763","3","0.31124622","0.038307227","9.473856","sit down","0"
"18698534795259","3","0.29209262","0.02873042","9.473856","sit down","0"
"18698554723238","3","0.29927522","0.035913024","9.481039","sit down","0"
"18698574712251","3","0.29688102","0.031124622","9.461885","sit down","0"
"18698594670748","3","0.30645782","0.02873042","9.464279","sit down","0"
"18698614629244","3","0.30645782","0.02633622","9.476251","sit down","0"
"18698634557222","3","0.29688102","0.031124622","9.461885","sit down","0"
"18698654546236","3","0.29927522","0.033518825","9.461885","sit down","0"
"18698674504732","3","0.30406362","0.035913024","9.473856","sit down","0"
"18698694463228","3","0.29927522","0.033518825","9.466674","sit down","0"
"18698714421724","3","0.31124622","0.021547815","9.464279","sit down","0"
"18698734410738","3","0.30406362","0.02873042","9.473856","sit down","0"
"18698754399751","3","0.29927522","0.038307227","9.469068","sit down","0"
"18698774358248","3","0.29688102","0.04070143","9.457097","sit down","0"
"18698794316744","3","0.29448682","0.033518825","9.473856","sit down","0"
"18698814244722","3","0.30406362","0.038307227","9.476251","sit down","0"
"18698834172701","3","0.30166942","0.02873042","9.473856","sit down","0"
"18698854161714","3","0.29688102","0.02873042","9.459491","sit down","0"
"18698874120210","3","0.29927522","0.031124622","9.459491","sit down","0"
"18698894078707","3","0.30645782","0.031124622","9.485827","sit down","0"
"18698914037203","3","0.30885202","0.031124622","9.466674","sit down","0"
"18698933965181","3","0.30166942","0.019153614","9.449914","sit down","0"
"18698953952751","3","0.30166942","0.023942016","9.454702","sit down","0"
"18698973912691","3","0.30406362","0.031124622","9.469068","sit down","0"
"18698993871187","3","0.30166942","0.035913024","9.469068","sit down","0"
"18699013860201","3","0.30166942","0.04309563","9.459491","sit down","0"
"18699033818697","3","0.2896984","0.021547815","9.461885","sit down","0"
"18699053777193","3","0.31124622","0.02633622","9.485827","sit down","0"
"18699073766207","3","0.29927522","0.033518825","9.473856","sit down","0"
"18699093724703","3","0.30645782","0.035913024","9.464279","sit down","0"
"18699113652681","3","0.29927522","0.021547815","9.473856","sit down","0"
"18699133641695","3","0.30166942","0.035913024","9.461885","sit down","0"
"18699153569673","3","0.30885202","0.023942016","9.461885","sit down","0"
"18699173528169","3","0.29209262","0.033518825","9.471462","sit down","0"
"18699193486666","3","0.30645782","0.033518825","9.476251","sit down","0"
"18699213445162","3","0.30406362","0.02873042","9.469068","sit down","0"
"18699233434175","3","0.29927522","0.04070143","9.466674","sit down","0"
"18699253362154","3","0.31124622","0.035913024","9.459491","sit down","0"
"18699273320650","3","0.29927522","0.023942016","9.478644","sit down","0"
"18699293309664","3","0.30166942","0.033518825","9.466674","sit down","0"
"18699313268160","3","0.30406362","0.038307227","9.469068","sit down","0"
"18699333226656","3","0.29927522","0.035913024","9.473856","sit down","0"
"18699353185152","3","0.30166942","0.02873042","9.461885","sit down","0"
"18699373113130","3","0.29688102","0.019153614","9.469068","sit down","0"
"18699393102144","3","0.29927522","0.033518825","9.466674","sit down","0"
"18699413030123","3","0.30166942","0.031124622","9.461885","sit down","0"
"18699432988619","3","0.30645782","0.035913024","9.461885","sit down","0"
"18699452977632","3","0.29927522","0.023942016","9.471462","sit down","0"
"18699472936128","3","0.30645782","0.035913024","9.459491","sit down","0"
"18699492864107","3","0.30645782","0.035913024","9.461885","sit down","0"
"18699512853121","3","0.30166942","0.033518825","9.466674","sit down","0"
"18699532811617","3","0.31124622","0.033518825","9.473856","sit down","0"
"18699552800630","3","0.30166942","0.038307227","9.454702","sit down","0"
"18699572759126","3","0.29927522","0.033518825","9.469068","sit down","0"
"18699592717623","3","0.31124622","0.033518825","9.469068","sit down","0"
"18699612706636","3","0.29927522","0.033518825","9.466674","sit down","0"
"18699632695650","3","0.30406362","0.031124622","9.459491","sit down","0"
"18699652654146","3","0.30406362","0.009576807","9.473856","sit down","0"
"18699672612642","3","0.30166942","0.04070143","9.478644","sit down","0"
"18699692571138","3","0.30166942","0.02873042","9.471462","sit down","0"
"18699712529634","3","0.29927522","0.035913024","9.471462","sit down","0"
"18699732518648","3","0.29448682","0.02873042","9.469068","sit down","0"
"18699752477144","3","0.30645782","0.04309563","9.471462","sit down","0"
"18699772435640","3","0.30166942","0.02873042","9.466674","sit down","0"
"18699792394136","3","0.30166942","0.031124622","9.466674","sit down","0"
"18699812352632","3","0.29448682","0.033518825","9.464279","sit down","0"
"18699832341646","3","0.29688102","0.033518825","9.454702","lay down","0"
"18699852300142","3","0.29448682","0.033518825","9.469068","lay down","0"
"18699872258638","3","0.29688102","0.033518825","9.476251","lay down","0"
"18699892186617","3","0.30166942","0.02873042","9.478644","lay down","0"
"18699912175630","3","0.30645782","0.035913024","9.459491","lay down","0"
"18699932164644","3","0.29688102","0.02633622","9.464279","lay down","0"
"18699952123140","3","0.29448682","0.02873042","9.471462","lay down","0"
"18699972051119","3","0.30406362","0.035913024","9.481039","lay down","0"
"18699992009615","3","0.29927522","0.02873042","9.466674","lay down","0"
"18700011968111","3","0.29688102","0.021547815","9.459491","lay down","0"
"18700031957125","3","0.30406362","0.031124622","9.471462","lay down","0"
"18700051885103","3","0.29209262","0.04070143","9.466674","lay down","0"
"18700071843599","3","0.29448682","0.04309563","9.461885","lay down","0"
"18700091802095","3","0.29927522","0.02633622","9.466674","lay down","0"
"18700111760591","3","0.30885202","0.033518825","9.464279","lay down","0"
"18700131749605","3","0.30885202","0.031124622","9.466674","lay down","0"
"18700151708101","3","0.29688102","0.02873042","9.464279","lay down","0"
"18700171649404","3","0.30885202","0.035913024","9.504981","lay down","0"
"18700191594576","3","0.31124622","0.016759412","9.442732","lay down","0"
"18700211583589","3","0.29448682","0.02633622","9.481039","lay down","0"
"18700231542085","3","0.29209262","0.035913024","9.473856","lay down","0"
"18700251500582","3","0.31364042","0.045489833","9.485827","lay down","0"
"18700271428560","3","0.29209262","0.02873042","9.452309","lay down","0"
"18700291417574","3","0.31364042","0.031124622","9.488221","lay down","0"
"18700311345552","3","0.29209262","0.02873042","9.488221","lay down","0"
"18700331334566","3","0.30645782","0.04070143","9.461885","lay down","0"
"18700351293062","3","0.29209262","0.02633622","9.461885","lay down","0"
"18700371221041","3","0.29209262","0.021547815","9.500193","lay down","0"
"18700391179537","3","0.2825158","0.02873042","9.44752","lay down","0"
"18700411138033","3","0.30166942","0.04309563","9.478644","lay down","0"
"18700431115827","3","0.2873042","0.031124622","9.44752","lay down","0"
"18700451074557","3","0.30166942","0.033518825","9.495404","lay down","0"
"18700471014403","3","0.30166942","0.02633622","9.459491","lay down","0"
"18700490972017","3","0.29927522","0.047884032","9.473856","lay down","0"
"18700510961031","3","0.30645782","0.031124622","9.488221","lay down","0"
"18700530950044","3","0.2896984","0.045489833","9.382876","lay down","0"
"18700550905596","3","0.31124622","0.02873042","9.485827","lay down","0"
"18700570867037","3","0.2896984","0.059855044","9.502586","lay down","0"
"18700590795015","3","0.2896984","0.050278235","9.445126","lay down","0"
"18700610767634","3","0.2681506","0.06703765","9.473856","lay down","0"
"18700630742525","3","0.33039984","0.038307227","9.502586","lay down","0"
"18700650701021","3","0.31603462","0.01436521","9.49301","lay down","0"
"18700670690035","3","0.2705448","0.035913024","9.459491","lay down","0"
"18700690646019","3","0.32800564","0.0047884034","9.52174","lay down","0"
"18700710607027","3","0.30166942","0.045489833","9.397242","lay down","0"
"18700730565523","3","0.29688102","0.01436521","9.531317","lay down","0"
"18700750493501","3","0.30406362","0.019153614","9.5385","lay down","0"
"18700770482515","3","0.29209262","0.0023942017","9.3182335","lay down","0"
"18700790415942","3","0.2705448","0.02873042","9.478644","lay down","0"
"18700810368990","3","0.32321724","0.0023942017","9.607931","lay down","0"
"18700830358003","3","0.2753332","0.04070143","9.363723","lay down","0"
"18700850285982","3","0.30885202","0.01436521","9.397242","lay down","0"
"18700870244478","3","0.2825158","0.035913024","9.55047","lay down","0"
"18700890172457","3","0.29209262","0.035913024","9.504981","lay down","0"
"18700910161470","3","0.29448682","0.04309563","9.442732","lay down","0"
"18700930150484","3","0.2873042","0.031124622","9.452309","lay down","0"
"18700950108980","3","0.29688102","0.021547815","9.485827","lay down","0"
"18700970041749","3","0.29209262","0.019153614","9.476251","lay down","0"
"18700990025972","3","0.2873042","0.011971008","9.433155","lay down","0"
"18701009939288","3","0.2896984","0.02873042","9.437943","lay down","0"
"18701029934711","3","0.29688102","0.02873042","9.512163","lay down","0"
"18701049901460","3","0.33279404","0.038307227","9.572019","lay down","0"
"18701069878288","3","0.33518824","0.023942016","9.461885","lay down","0"
"18701089836403","3","0.30166942","0.021547815","9.406818","lay down","0"
"18701109759788","3","0.31124622","0.0023942017","9.497798","lay down","0"
"18701129765962","3","0.3184288","0.031124622","9.43076","lay down","0"
"18701149693941","3","0.30406362","0.02873042","9.500193","lay down","0"
"18701169620826","3","0.30645782","0.021547815","9.536105","lay down","0"
"18701189610933","3","0.31124622","0.055066638","9.356541","lay down","0"
"18701209569429","3","0.29448682","0.033518825","9.440337","lay down","0"
"18701229470595","3","0.29688102","0.01436521","9.562442","lay down","0"
"18701249455904","3","0.30166942","0.033518825","9.440337","lay down","0"
"18701269409826","3","0.30645782","0.0","9.399636","lay down","0"
"18701289353518","3","0.2681506","-0.06703765","9.572019","lay down","0"
"18701309331392","3","0.32321724","0.12210429","9.490616","lay down","0"
"18701329277480","3","0.23463176","0.007182605","9.813833","lay down","0"
"18701349233941","3","0.32561144","0.08379706","9.569624","lay down","0"
"18701369231672","3","0.28491","0.0","9.181764","lay down","0"
"18701389166557","3","0.31124622","0.045489833","9.610326","lay down","0"
"18701409140211","3","0.31364042","0.016759412","9.390059","lay down","0"
"18701429143404","3","0.260968","0.06703765","9.346964","lay down","0"
"18701449112826","3","0.2873042","-0.023942016","9.49301","lay down","0"
"18701469090914","3","0.23702596","-0.04070143","9.454702","lay down","0"
"18701489004634","3","0.31124622","0.0023942017","9.356541","lay down","0"
"18701508951403","3","0.15083471","0.08379706","9.215282","lay down","0"
"18701528935884","3","0.22026655","-0.19871874","8.832211","lay down","0"
"18701548849441","3","0.37828386","-0.20350714","10.244789","lay down","0"
"18701568773480","3","0.19871874","0.1604115","9.246407","lay down","0"
"18701588750337","3","0.5410896","0.18435353","9.406818","lay down","0"
"18701608739351","3","0.34237084","0.15562311","9.277532","lay down","0"
"18701628667330","3","0.22744916","-0.15083471","9.871294","lay down","0"
"18701648656343","3","0.22266077","0.10295067","9.514558","lay down","0"
"18701668608826","3","0.33518824","-0.033518825","9.313444","lay down","0"
"18701688573335","3","0.29448682","0.110133275","9.564836","lay down","0"
"18701708531832","3","0.30645782","0.019153614","9.514558","lay down","0"
"18701728490328","3","0.260968","0.095768064","9.564836","lay down","0"
"18701748448824","3","0.34476504","0.02633622","9.433155","lay down","0"
"18701768407320","3","0.25139117","0.05267244","9.435549","lay down","0"
"18701788396334","3","0.2896984","0.047884032","9.588778","lay down","0"
"18701808320941","3","0.31124622","0.06943185","9.445126","lay down","0"
"18701828270633","3","0.2633622","0.016759412","9.303867","lay down","0"
"18701848271822","3","0.2657564","0.035913024","9.516952","lay down","0"
"18701868230318","3","0.29688102","0.031124622","9.485827","lay down","0"
"18701888144826","3","0.2705448","0.04309563","9.423578","lay down","0"
"18701908125095","3","0.10295067","0.038307227","9.414001","lay down","0"
"18701928075289","3","0.21787235","0.011971008","9.540894","lay down","0"
"18701948033785","3","0.38067806","0.04309563","9.313444","lay down","0"
"18701968022798","3","0.30166942","0.023942016","9.464279","lay down","0"
"18701987968479","3","0.6679823","0.038307227","9.478644","lay down","0"
"18702007909249","3","0.39264908","0.11971009","9.579201","lay down","0"
"18702027898287","3","0.38307226","0.1316811","9.737218","lay down","0"
"18702047856783","3","0.32321724","0.10534488","9.583989","lay down","0"
"18702067798249","3","0.2753332","0.06943185","9.488221","lay down","0"
"18702087749402","3","0.25617957","0.045489833","9.414001","lay down","0"
"18702107732271","3","0.25857377","0.055066638","9.332599","lay down","0"
"18702127721285","3","0.25139117","0.10055647","9.509769","lay down","0"
"18702147653941","3","0.29448682","0.045489833","9.387665","lay down","0"
"18702167595518","3","0.30166942","0.04309563","9.433155","lay down","0"
"18702187538095","3","0.2681506","0.08140286","9.502586","lay down","0"
"18702207522748","3","0.2657564","0.023942016","9.485827","lay down","0"
"18702227483248","3","0.30645782","0.06464344","9.524135","lay down","0"
"18702247434518","3","0.2873042","0.02633622","9.555259","lay down","0"
"18702267430757","3","0.32321724","0.021547815","9.334992","lay down","0"
"18702287389253","3","0.320823","0.02873042","9.44752","lay down","0"
"18702307347750","3","0.30885202","0.04070143","9.533711","lay down","0"
"18702327306246","3","0.30166942","0.021547815","9.442732","lay down","0"
"18702347264742","3","0.29448682","0.055066638","9.483433","lay down","0"
"18702367192720","3","0.2753332","0.02873042","9.459491","lay down","0"
"18702387143671","3","0.2681506","0.019153614","9.452309","lay down","0"
"18702407140230","3","0.2753332","0.016759412","9.461885","lay down","0"
"18702427098726","3","0.2777274","0.035913024","9.445126","lay down","0"
"18702447057222","3","0.29688102","0.04309563","9.469068","lay down","0"
"18702467015718","3","0.29448682","0.04309563","9.469068","lay down","0"
"18702486974214","3","0.29448682","0.038307227","9.495404","lay down","0"
"18702506928979","3","0.29209262","0.035913024","9.488221","lay down","0"
"18702526834517","3","0.29448682","0.031124622","9.459491","lay down","0"
"18702546830248","3","0.30406362","0.038307227","9.473856","lay down","0"
"18702566808199","3","0.2896984","0.033518825","9.495404","lay down","0"
"18702586596695","3","0.28491","0.038307227","9.469068","lay down","0"
"18702606555192","3","0.2896984","0.045489833","9.476251","lay down","0"
"18702626513688","3","0.29448682","0.023942016","9.488221","lay down","0"
"18702646472184","3","0.2896984","0.035913024","9.471462","lay down","0"
"18702666461197","3","0.30166942","0.04309563","9.469068","lay down","0"
"18702686419693","3","0.29688102","0.031124622","9.466674","lay down","0"
"18702706347672","3","0.28491","0.031124622","9.471462","lay down","0"
"18702726336686","3","0.30406362","0.031124622","9.476251","lay down","0"
"18702746295182","3","0.28491","0.02633622","9.471462","lay down","0"
"18702766223160","3","0.29688102","0.023942016","9.469068","lay down","0"
"18702786181656","3","0.2873042","0.023942016","9.471462","lay down","0"
"18702806140152","3","0.29209262","0.035913024","9.485827","lay down","0"
"18702826129166","3","0.29688102","0.038307227","9.473856","lay down","0"
"18702846087662","3","0.29927522","0.021547815","9.464279","lay down","0"
"18702866046158","3","0.2825158","0.035913024","9.471462","lay down","0"
"18702886004654","3","0.29927522","0.033518825","9.481039","lay down","0"
"18702905963150","3","0.28491","0.02873042","9.483433","lay down","0"
"18702925891129","3","0.2801216","0.033518825","9.473856","lay down","0"
"18702945849625","3","0.2873042","0.035913024","9.478644","lay down","0"
"18702965838639","3","0.29209262","0.035913024","9.49301","lay down","0"
"18702985797135","3","0.29448682","0.035913024","9.469068","lay down","0"
"18703005755631","3","0.29209262","0.038307227","9.485827","lay down","0"
"18703025714127","3","0.29927522","0.035913024","9.471462","lay down","0"
"18703045672623","3","0.30406362","0.02873042","9.471462","lay down","0"
"18703065600602","3","0.29209262","0.033518825","9.478644","lay down","0"
"18703085589615","3","0.28491","0.031124622","9.478644","lay down","0"
"18703105517594","3","0.2896984","0.031124622","9.485827","lay down","0"
"18703125506608","3","0.29209262","0.02873042","9.478644","lay down","0"
"18703145465104","3","0.2896984","0.035913024","9.442732","lay down","0"
"18703165423600","3","0.2873042","0.04070143","9.466674","lay down","0"
"18703185382096","3","0.30406362","0.023942016","9.488221","lay down","0"
"18703205371109","3","0.29209262","0.033518825","9.473856","lay down","0"
"18703225329606","3","0.28491","0.031124622","9.485827","lay down","0"
"18703245318619","3","0.29927522","0.02633622","9.478644","lay down","0"
"18703265277115","3","0.29448682","0.038307227","9.483433","lay down","0"
"18703285205094","3","0.29209262","0.04070143","9.49301","lay down","0"
"18703305194108","3","0.2896984","0.035913024","9.476251","lay down","0"
"18703325122086","3","0.29688102","0.02873042","9.469068","lay down","0"
"18703345080582","3","0.29209262","0.04070143","9.478644","lay down","0"
"18703365069596","3","0.2873042","0.021547815","9.483433","lay down","0"
"18703385028092","3","0.28491","0.035913024","9.485827","lay down","0"
"18703404986588","3","0.29688102","0.033518825","9.473856","lay down","0"
"18703424945084","3","0.28491","0.031124622","9.481039","lay down","0"
"18703444873063","3","0.29448682","0.031124622","9.469068","lay down","0"
"18703464862076","3","0.2825158","0.02633622","9.471462","lay down","0"
"18703484820572","3","0.2896984","0.031124622","9.478644","lay down","0"
"18703504779068","3","0.28491","0.033518825","9.481039","lay down","0"
"18703524737565","3","0.28491","0.04309563","9.481039","lay down","0"
"18703544665543","3","0.29688102","0.035913024","9.466674","lay down","0"
"18703564624039","3","0.29688102","0.031124622","9.485827","lay down","0"
"18703584582535","3","0.29209262","0.038307227","9.488221","lay down","0"
"18703604510514","3","0.2801216","0.031124622","9.478644","lay down","0"
"18703624499527","3","0.2896984","0.035913024","9.466674","lay down","0"
"18703644458024","3","0.29209262","0.02873042","9.469068","lay down","0"
"18703664386002","3","0.29209262","0.045489833","9.483433","lay down","0"
"18703684313981","3","0.2896984","0.04309563","9.485827","lay down","0"
"18703704302994","3","0.2825158","0.033518825","9.488221","lay down","0"
"18703724292008","3","0.29209262","0.035913024","9.481039","lay down","0"
"18703744250504","3","0.2825158","0.033518825","9.476251","lay down","0"
"18703764209000","3","0.29209262","0.02633622","9.473856","lay down","0"
"18703784136979","3","0.2801216","0.033518825","9.478644","lay down","0"
"18703804095475","3","0.29448682","0.02633622","9.471462","lay down","0"
"18703824053971","3","0.29927522","0.033518825","9.476251","sit up","0"
"18703844042984","3","0.2896984","0.033518825","9.478644","sit up","0"
"18703864001481","3","0.2873042","0.02873042","9.471462","sit up","0"
"18703883929459","3","0.30166942","0.04309563","9.490616","sit up","0"
"18703903918473","3","0.2873042","0.033518825","9.485827","sit up","0"
"18703923846451","3","0.2825158","0.033518825","9.464279","sit up","0"
"18703943835465","3","0.30166942","0.038307227","9.490616","sit up","0"
"18703963793961","3","0.2896984","0.033518825","9.481039","sit up","0"
"18703983752457","3","0.29209262","0.038307227","9.469068","sit up","0"
"18704003710953","3","0.2896984","0.021547815","9.466674","sit up","0"
"18704023638932","3","0.2896984","0.031124622","9.478644","sit up","0"
"18704043597428","3","0.2825158","0.021547815","9.49301","sit up","0"
"18704063555924","3","0.2825158","0.04309563","9.471462","sit up","0"
"18704083514420","3","0.29448682","0.035913024","9.476251","sit up","0"
"18704103472916","3","0.28491","0.02873042","9.464279","sit up","0"
"18704123431412","3","0.29448682","0.02873042","9.481039","sit up","0"
"18704143389908","3","0.2873042","0.02873042","9.478644","sit up","0"
"18704163378922","3","0.28491","0.021547815","9.478644","sit up","0"
"18704183337418","3","0.29448682","0.02873042","9.473856","sit up","0"
"18704203295914","3","0.28491","0.031124622","9.466674","sit up","0"
"18704223254410","3","0.28491","0.035913024","9.466674","sit up","0"
"18704243212906","3","0.29688102","0.02873042","9.457097","sit up","0"
"18704263171402","3","0.2681506","0.007182605","9.452309","sit up","0"
"18704283160416","3","0.272939","0.009576807","9.504981","sit up","0"
"18704303088395","3","0.29209262","0.055066638","9.531317","sit up","0"
"18704323077408","3","0.29209262","0.019153614","9.476251","sit up","0"
"18704343035904","3","0.29688102","0.02633622","9.457097","sit up","0"
"18704362963883","3","0.29688102","0.0023942017","9.469068","sit up","0"
"18704382922379","3","0.2801216","-0.02633622","9.552865","sit up","0"
"18704402911393","3","0.2825158","0.04309563","9.478644","sit up","0"
"18704422900406","3","0.29688102","0.06943185","9.437943","sit up","0"
"18704442858902","3","0.29209262","0.02633622","9.476251","sit up","0"
"18704462817399","3","0.2825158","0.038307227","9.509769","sit up","0"
"18704482775895","3","0.29688102","0.090979666","9.404425","sit up","0"
"18704502734391","3","0.33279404","0.06943185","9.40203","sit up","0"
"18704522723404","3","0.2753332","-0.050278235","9.442732","sit up","0"
"18704542681900","3","0.2825158","0.08619126","9.591172","sit up","0"
"18704562640397","3","0.272939","0.055066638","9.466674","sit up","0"
"18704582568375","3","0.25617957","0.05746084","9.502586","sit up","0"
"18704602557389","3","0.39264908","0.023942016","9.586384","sit up","0"
"18704622515885","3","0.22026655","0.0023942017","9.337387","sit up","0"
"18704642504899","3","0.25378537","-0.023942016","9.55047","sit up","0"
"18704662463395","3","0.3184288","-0.059855044","9.507375","sit up","0"
"18704682391373","3","0.2633622","-0.023942016","9.399636","sit up","0"
"18704702349869","3","0.272939","-0.01436521","9.423578","sit up","0"
"18704722308365","3","0.29209262","-0.019153614","9.433155","sit up","0"
"18704742266861","3","0.2873042","-0.035913024","9.466674","sit up","0"
"18704762255875","3","0.30645782","-0.011971008","9.423578","sit up","0"
"18704782214371","3","0.2825158","0.0047884034","9.421184","sit up","0"
"18704802142350","3","0.320823","0.0","9.507375","sit up","0"
"18704822131363","3","0.30885202","0.009576807","9.564836","sit up","0"
"18704842059342","3","0.31124622","-0.01436521","9.543288","sit up","0"
"18704862017838","3","0.30166942","0.0023942017","9.548077","sit up","0"
"18704881945817","3","0.2896984","-0.0047884034","9.500193","sit up","0"
"18704901934830","3","0.33758244","-0.02633622","9.500193","sit up","0"
"18704921923844","3","0.30166942","0.0","9.44752","sit up","0"
"18704941882340","3","0.3184288","0.021547815","9.500193","sit up","0"
"18704961840836","3","0.320823","0.02633622","9.485827","sit up","0"
"18704981799332","3","0.2896984","0.01436521","9.449914","sit up","0"
"18705001757828","3","0.30645782","0.021547815","9.414001","sit up","0"
"18705021685807","3","0.29448682","0.019153614","9.531317","sit up","0"
"18705041613785","3","0.29209262","0.02633622","9.464279","sit up","0"
"18705061602799","3","0.30166942","0.019153614","9.500193","sit up","0"
"18705081561295","3","0.31124622","0.011971008","9.49301","sit up","0"
"18705101489274","3","0.29927522","0.0023942017","9.514558","sit up","0"
"18705121447770","3","0.31364042","0.01436521","9.495404","sit up","0"
"18705141436783","3","0.30406362","0.007182605","9.423578","sit up","0"
"18705161395279","3","0.30885202","-0.0023942017","9.483433","sit up","0"
"18705181353775","3","0.30645782","-0.0023942017","9.457097","sit up","0"
"18705201312272","3","0.30166942","-0.0023942017","9.44752","sit up","0"
"18705221270768","3","0.31603462","0.0","9.476251","sit up","0"
"18705241259781","3","0.2753332","0.02873042","9.471462","sit up","0"
"18705261218277","3","0.38067806","0.04309563","9.581595","sit up","0"
"18705281176774","3","0.2657564","-0.14844051","9.674969","sit up","0"
"18705301135270","3","0.23702596","-0.11492168","9.43076","sit up","0"
"18705321063248","3","0.33997664","-0.023942016","9.287108","sit up","0"
"18705341052262","3","0.2705448","0.107739076","9.32781","sit up","0"
"18705361041275","3","0.35194764","0.11731588","9.528923","sit up","0"
"18705380999772","3","0.32800564","-0.05267244","9.421184","sit up","0"
"18705400927750","3","0.33758244","-0.02633622","9.775525","sit up","0"
"18705420886246","3","0.36870706","0.14844051","9.440337","sit up","0"
"18705440875260","3","0.38307226","0.047884032","9.392453","sit up","0"
"18705460833756","3","0.25617957","0.0023942017","9.414001","sit up","0"
"18705480761734","3","0.25857377","-0.08619126","9.361329","sit up","0"
"18705500750748","3","0.36152446","-0.007182605","9.473856","sit up","0"
"18705520709244","3","0.25857377","0.10534488","9.528923","sit up","0"
"18705540667740","3","0.36870706","0.0023942017","9.500193","sit up","0"
"18705560595719","3","0.272939","-0.011971008","9.406818","sit up","0"
"18705580554215","3","0.320823","0.021547815","9.52174","sit up","0"
"18705600543229","3","0.30885202","0.090979666","9.457097","sit up","0"
"18705620501725","3","0.35194764","0.047884032","9.548077","sit up","0"
"18705640460221","3","0.35434186","0.016759412","9.483433","sit up","0"
"18705660418717","3","0.29927522","0.08379706","9.435549","sit up","0"
"18705680377213","3","0.29927522","0.07182605","9.502586","sit up","0"
"18705700305192","3","0.30885202","0.09816227","9.469068","sit up","0"
"18705720294205","3","0.29209262","0.05267244","9.423578","sit up","0"
"18705740252701","3","0.28491","0.02633622","9.485827","sit up","0"
"18705760211197","3","0.29688102","0.08379706","9.414001","sit up","0"
"18705780169693","3","0.29209262","0.15801731","9.457097","sit up","0"
"18705800128190","3","0.25378537","0.10534488","9.488221","sit up","0"
"18705820086686","3","0.22744916","0.0","9.488221","sit up","0"
"18705840045182","3","0.23223756","0.055066638","9.25359","sit up","0"
"18705860034195","3","0.36631286","-0.12449849","9.478644","sit up","0"
"18705879992692","3","0.30166942","0.045489833","9.682152","sit up","0"
"18705899951188","3","0.30406362","0.4189853","9.636662","sit up","0"
"18705919909684","3","0.5315128","-0.055066638","9.169792","sit up","0"
"18705939837662","3","0.01436521","0.12449849","9.813833","sit up","0"
"18705959826676","3","0.4405331","0.08619126","9.569624","sit up","0"
"18705979785172","3","0.39264908","-0.08619126","9.224859","sit up","0"
"18705999743668","3","0.2657564","0.0023942017","9.572019","sit up","0"
"18706019702164","3","0.14844051","0.023942016","9.919178","sit up","0"
"18706039660660","3","0.35194764","-0.08379706","9.349358","sit up","0"
"18706059588639","3","0.19871874","-0.055066638","9.323022","sit up","0"
"18706079516617","3","0.2705448","-0.02633622","9.43076","sit up","0"
"18706099505631","3","0.18674773","0.07182605","9.478644","sit up","0"
"18706119494645","3","0.11731588","0.08619126","9.435549","sit up","0"
"18706139453141","3","0.1316811","0.19153613","9.682152","sit up","0"
"18706159411637","3","-0.15083471","0.11731588","9.442732","sit up","0"
"18706179370133","3","-0.31603462","0.059855044","9.528923","sit up","0"
"18706199328629","3","-0.4285621","-0.031124622","9.397242","sit up","0"
"18706219317643","3","-0.12210429","-0.15322891","9.627085","sit up","0"
"18706239306656","3","0.4141969","0.031124622","9.313444","sit up","0"
"18706259265152","3","0.51475334","-0.007182605","9.531317","sit up","0"
"18706279193131","3","0.45010993","0.088585466","9.370906","sit up","0"
"18706299182145","3","0.5363012","0.0023942017","9.500193","sit up","0"
"18706319110123","3","0.40940848","-0.023942016","9.308656","sit up","0"
"18706339099137","3","0.7086837","0.011971008","9.576807","sit up","0"
"18706359057633","3","0.60094464","0.011971008","9.466674","sit up","0"
"18706379016129","3","0.5530606","-0.009576807","9.588778","sit up","0"
"18706398944108","3","0.36631286","0.007182605","9.43076","sit up","0"
"18706418933121","3","0.19871874","0.021547815","9.459491","sit up","0"
"18706438891617","3","0.260968","-0.011971008","9.502586","sit up","0"
"18706458819596","3","0.24899697","0.031124622","9.411607","sit up","0"
"18706478747574","3","0.272939","0.007182605","9.579201","sit up","0"
"18706498706070","3","0.23702596","0.033518825","9.41879","sit up","0"
"18706518634049","3","0.23942018","0.016759412","9.500193","sit up","0"
"18706538592545","3","0.24420857","0.021547815","9.519346","sit up","0"
"18706558581559","3","0.20111294","0.023942016","9.411607","sit up","0"
"18706578540055","3","0.24420857","0.033518825","9.459491","sit up","0"
"18706598498551","3","0.24420857","0.019153614","9.543288","sit up","0"
"18706618457047","3","0.25139117","0.02633622","9.44752","sit up","0"
"18706638385025","3","0.23223756","0.02873042","9.507375","sit up","0"
"18706658374039","3","0.25857377","0.023942016","9.500193","sit up","0"
"18706678332535","3","0.22744916","0.02873042","9.452309","sit up","0"
"18706698291031","3","0.22984336","0.02873042","9.440337","sit up","0"
"18706718219010","3","0.23702596","0.031124622","9.512163","sit up","0"
"18706738208024","3","0.21787235","0.031124622","9.466674","sit up","0"
"18706758166520","3","0.24420857","0.023942016","9.478644","sit up","0"
"18706778125016","3","0.23223756","0.033518825","9.49301","sit up","0"
"18706798083512","3","0.23702596","0.031124622","9.473856","sit up","0"
"18706818042008","3","0.22744916","0.02873042","9.476251","sit up","0"
"18706838031022","3","0.22984336","0.038307227","9.485827","sit up","0"
"18706857989518","3","0.24181437","0.021547815","9.485827","sit up","0"
"18706877948014","3","0.23463176","0.033518825","9.49301","sit up","0"
"18706897875992","3","0.24181437","0.033518825","9.459491","sit up","0"
"18706917865006","3","0.24181437","0.021547815","9.476251","sit up","0"
"18706937823502","3","0.23942018","0.031124622","9.461885","sit up","0"
"18706957781998","3","0.22505496","0.02873042","9.459491","sit up","0"
"18706977771012","3","0.24420857","0.04070143","9.466674","sit up","0"
"18706997729508","3","0.24660277","0.02873042","9.485827","sit up","0"
"18707017688004","3","0.24181437","0.033518825","9.466674","sit up","0"
"18707037646500","3","0.23942018","0.038307227","9.473856","sit up","0"
"18707057574479","3","0.25378537","0.038307227","9.469068","sit up","0"
"18707077502457","3","0.23223756","0.035913024","9.464279","sit up","0"
"18707097491471","3","0.25139117","0.038307227","9.481039","sit up","0"
"18707117449967","3","0.24899697","0.045489833","9.466674","sit up","0"
"18707137377945","3","0.24899697","0.038307227","9.473856","sit up","0"
"18707157366959","3","0.21547815","0.016759412","9.485827","sit up","0"
"18707177325455","3","0.24899697","0.031124622","9.459491","sit up","0"
"18707197253434","3","0.23702596","0.04309563","9.485827","sit up","0"
"18707217242447","3","0.23463176","0.035913024","9.481039","sit up","0"
"18707237170426","3","0.23223756","0.05267244","9.481039","sit up","0"
"18707257128922","3","0.22984336","0.04309563","9.481039","sit up","0"
"18707277087418","3","0.24181437","0.038307227","9.483433","sit up","0"
"18707297045914","3","0.23942018","0.04309563","9.490616","sit up","0"
"18707317034928","3","0.23702596","0.038307227","9.478644","sit up","0"
"18707336993424","3","0.23463176","0.045489833","9.478644","sit up","0"
"18707356951920","3","0.22984336","0.04309563","9.485827","sit up","0"
"18707376879899","3","0.23942018","0.038307227","9.485827","sit up","0"
"18707396838395","3","0.22744916","0.050278235","9.476251","sit up","0"
"18707416796891","3","0.24181437","0.038307227","9.481039","sit up","0"
"18707436785904","3","0.23702596","0.050278235","9.483433","sit up","0"
"18707456744400","3","0.23702596","0.047884032","9.473856","sit up","0"
"18707476702897","3","0.23942018","0.04309563","9.471462","sit up","0"
"18707496661393","3","0.24181437","0.050278235","9.473856","sit up","0"
"18707516619889","3","0.24899697","0.038307227","9.469068","sit up","0"
"18707536547867","3","0.23463176","0.031124622","9.485827","sit up","0"
"18707556536881","3","0.23702596","0.04070143","9.471462","sit up","0"
"18707576495377","3","0.22505496","0.035913024","9.478644","sit up","0"
"18707596453873","3","0.24660277","0.04309563","9.469068","sit up","0"
"18707616412369","3","0.24181437","0.04309563","9.481039","sit up","0"
"18707636340348","3","0.24420857","0.02633622","9.483433","sit up","0"
"18707656329361","3","0.23942018","0.035913024","9.471462","sit up","0"
"18707676287858","3","0.23702596","0.04309563","9.483433","sit up","0"
"18707696246354","3","0.23942018","0.038307227","9.473856","sit up","0"
"18707716174332","3","0.24181437","0.04309563","9.478644","sit up","0"
"18707736163346","3","0.23942018","0.038307227","9.488221","sit up","0"
"18707756091324","3","0.23702596","0.04309563","9.476251","sit up","0"
"18707776080338","3","0.25139117","0.05267244","9.473856","sit up","0"
"18707796008317","3","0.23463176","0.035913024","9.481039","sit up","0"
"18707815966813","3","0.24660277","0.038307227","9.478644","sit up","0"
"18707835955826","3","0.23463176","0.045489833","9.466674","stand up","0"
"18707855914322","3","0.25139117","0.033518825","9.476251","stand up","0"
"18707875842301","3","0.24181437","0.031124622","9.481039","stand up","0"
"18707895800797","3","0.23223756","0.047884032","9.464279","stand up","0"
"18707915759293","3","0.23942018","0.038307227","9.476251","stand up","0"
"18707935748307","3","0.23463176","0.033518825","9.476251","stand up","0"
"18707955706803","3","0.23702596","0.045489833","9.473856","stand up","0"
"18707975634781","3","0.24181437","0.04309563","9.473856","stand up","0"
"18707995593277","3","0.23463176","0.035913024","9.469068","stand up","0"
"18708015551774","3","0.24420857","0.04070143","9.473856","stand up","0"
"18708035540787","3","0.23942018","0.04309563","9.466674","stand up","0"
"18708055499283","3","0.24181437","0.04309563","9.466674","stand up","0"
"18708075427262","3","0.22505496","0.031124622","9.437943","stand up","0"
"18708095385758","3","0.25139117","0.035913024","9.485827","stand up","0"
"18708115344254","3","0.2633622","0.033518825","9.473856","stand up","0"
"18708135302750","3","0.2633622","0.047884032","9.49301","stand up","0"
"18708155230729","3","0.2705448","0.04309563","9.524135","stand up","0"
"18708175158707","3","0.24181437","0.045489833","9.476251","stand up","0"
"18708195147721","3","0.23463176","0.035913024","9.483433","stand up","0"
"18708215106217","3","0.24420857","0.031124622","9.478644","stand up","0"
"18708235064713","3","0.22266077","0.031124622","9.469068","stand up","0"
"18708254992692","3","0.24181437","0.02873042","9.502586","stand up","0"
"18708274920670","3","0.22505496","0.04070143","9.440337","stand up","0"
"18708294909684","3","0.23942018","0.038307227","9.466674","stand up","0"
"18708314837662","3","0.24899697","0.038307227","9.461885","stand up","0"
"18708334826676","3","0.23942018","0.038307227","9.488221","stand up","0"
"18708354785172","3","0.24181437","0.045489833","9.466674","stand up","0"
"18708374713150","3","0.24899697","0.05267244","9.502586","stand up","0"
"18708394671647","3","0.24181437","0.055066638","9.478644","stand up","0"
"18708414599625","3","0.25139117","0.047884032","9.528923","stand up","0"
"18708434558121","3","0.24899697","0.031124622","9.452309","stand up","0"
"18708454547135","3","0.22984336","0.035913024","9.471462","stand up","0"
"18708474505631","3","0.24181437","0.038307227","9.516952","stand up","0"
"18708494433609","3","0.22744916","0.038307227","9.476251","stand up","0"
"18708514422623","3","0.23942018","0.04070143","9.454702","stand up","0"
"18708534381119","3","0.25139117","0.033518825","9.490616","stand up","0"
"18708554309098","3","0.23702596","0.050278235","9.433155","stand up","0"
"18708574237076","3","0.22266077","0.033518825","9.488221","stand up","0"
"18708594195572","3","0.22984336","0.023942016","9.586384","stand up","0"
"18708614154068","3","0.19871874","0.04309563","9.545682","stand up","0"
"18708634143082","3","0.14844051","0.016759412","9.583989","stand up","0"
"18708654101578","3","0.19632454","0.011971008","9.583989","stand up","0"
"18708674029557","3","0.260968","0.04070143","9.337387","stand up","0"
"18708694018570","3","0.19632454","0.110133275","9.531317","stand up","0"
"18708713977067","3","0.2896984","0.016759412","9.516952","stand up","0"
"18708733966080","3","0.25857377","0.06943185","9.179369","stand up","0"
"18708753924576","3","0.2657564","-0.055066638","9.674969","stand up","0"
"18708773883072","3","0.19393034","0.24420857","9.217676","stand up","0"
"18708793841568","3","0.19153613","-0.11252748","9.512163","stand up","0"
"18708813800065","3","0.20111294","0.06943185","9.528923","stand up","0"
"18708833728043","3","0.16519992","0.05267244","9.3421755","stand up","0"
"18708853717057","3","0.20350714","0.02873042","9.557653","stand up","0"
"18708873675553","3","0.20829555","0.02633622","9.459491","stand up","0"
"18708893634049","3","0.18195933","0.04309563","9.459491","stand up","0"
"18708913592545","3","0.20590134","0.04070143","9.490616","stand up","0"
"18708933551041","3","0.20111294","0.033518825","9.452309","stand up","0"
"18708953479020","3","0.19871874","0.031124622","9.485827","stand up","0"
"18708973468033","3","0.21308395","0.038307227","9.473856","stand up","0"
"18708993426529","3","0.20111294","0.023942016","9.461885","stand up","0"
"18709013385025","3","0.19632454","0.038307227","9.471462","stand up","0"
"18709033343522","3","0.19153613","0.038307227","9.469068","stand up","0"
"18709053302018","3","0.18914193","0.02873042","9.473856","stand up","0"
"18709073291031","3","0.20350714","0.038307227","9.473856","stand up","0"
"18709093219010","3","0.19871874","0.031124622","9.478644","stand up","0"
"18709113208024","3","0.20590134","0.031124622","9.466674","stand up","0"
"18709133166520","3","0.21068975","0.04070143","9.473856","stand up","0"
"18709153094498","3","0.21068975","0.038307227","9.473856","stand up","0"
"18709173052994","3","0.20829555","0.035913024","9.481039","stand up","0"
"18709193011490","3","0.19153613","0.035913024","9.476251","stand up","0"
"18709213000504","3","0.21068975","0.035913024","9.478644","stand up","0"
"18709232959000","3","0.21308395","0.02633622","9.476251","stand up","0"
"18709252886979","3","0.19632454","0.038307227","9.469068","stand up","0"
"18709272845475","3","0.20111294","0.023942016","9.469068","stand up","0"
"18709292834488","3","0.19632454","0.031124622","9.476251","stand up","0"
"18709312762467","3","0.20111294","0.02873042","9.478644","stand up","0"
"18709332720963","3","0.20829555","0.033518825","9.483433","stand up","0"
"18709352709977","3","0.19393034","0.02873042","9.478644","stand up","0"
"18709372668473","3","0.20350714","0.021547815","9.473856","stand up","0"
"18709392626969","3","0.20111294","0.035913024","9.478644","stand up","0"
"18709412585465","3","0.20590134","0.021547815","9.481039","stand up","0"
"18709432513443","3","0.20350714","0.02873042","9.488221","stand up","0"
"18709452502457","3","0.19871874","0.031124622","9.483433","stand up","0"
"18709472460953","3","0.20350714","0.031124622","9.469068","stand up","0"
"18709492419449","3","0.20590134","0.02873042","9.481039","stand up","0"
"18709512377945","3","0.21068975","0.033518825","9.481039","stand up","0"
"18709532336442","3","0.20590134","0.02873042","9.485827","stand up","0"
"18709552325455","3","0.20590134","0.031124622","9.471462","stand up","0"
"18709572283951","3","0.19632454","0.02633622","9.481039","stand up","0"
"18709592211930","3","0.19871874","0.033518825","9.473856","stand up","0"
"18709612139908","3","0.20350714","0.031124622","9.473856","stand up","0"
"18709632128922","3","0.20829555","0.023942016","9.476251","stand up","0"
"18709652087418","3","0.20590134","0.04070143","9.478644","stand up","0"
"18709672045914","3","0.21308395","0.033518825","9.466674","stand up","0"
"18709692004410","3","0.20590134","0.035913024","9.478644","stand up","0"
"18709711932389","3","0.20829555","0.02633622","9.466674","stand up","0"
"18709731890885","3","0.20111294","0.033518825","9.476251","stand up","0"
"18709751879899","3","0.20111294","0.02873042","9.478644","stand up","0"
"18709771838395","3","0.20350714","0.033518825","9.483433","stand up","0"
"18709791796891","3","0.20350714","0.038307227","9.476251","stand up","0"
"18709811724869","3","0.20829555","0.033518825","9.483433","stand up","0"
"18709831652848","3","0.20111294","0.031124622","9.476251","stand up","0"
"18709851641861","3","0.20590134","0.02633622","9.481039","stand up","0"
"18709871600358","3","0.20111294","0.031124622","9.481039","stand up","0"
"18709891558854","3","0.20590134","0.031124622","9.476251","stand up","0"
"18709911517350","3","0.20111294","0.02873042","9.478644","stand up","0"
"18709931475846","3","0.22266077","0.023942016","9.481039","stand up","0"
"18709951403824","3","0.20590134","0.035913024","9.478644","stand up","0"
"18709971392838","3","0.21068975","0.035913024","9.483433","stand up","0"
"18709991351334","3","0.21068975","0.02873042","9.469068","stand up","0"
"18710011309830","3","0.20829555","0.02873042","9.481039","stand up","0"
"18710031237809","3","0.20111294","0.023942016","9.478644","stand up","0"
"18710051196305","3","0.21068975","0.038307227","9.476251","stand up","0"
"18710071185318","3","0.21068975","0.047884032","9.476251","stand up","0"
"18710091113297","3","0.20590134","0.023942016","9.471462","stand up","0"
"18710111102311","3","0.21308395","0.031124622","9.473856","stand up","0"
"18710131030289","3","0.19632454","0.035913024","9.473856","stand up","0"
"18710150988785","3","0.21068975","0.04309563","9.485827","stand up","0"
"18710170977799","3","0.20350714","0.038307227","9.476251","stand up","0"
"18710190905777","3","0.20829555","0.035913024","9.478644","stand up","0"
"18710210894791","3","0.20350714","0.02873042","9.478644","stand up","0"
"18710230853287","3","0.20590134","0.02873042","9.478644","stand up","0"
"18710250811783","3","0.20590134","0.033518825","9.485827","stand up","0"
"18710270770279","3","0.20829555","0.031124622","9.478644","stand up","0"
"18710290698258","3","0.20350714","0.02873042","9.476251","stand up","0"
"18710310687272","3","0.20111294","0.035913024","9.478644","stand up","0"
"18710330615250","3","0.21068975","0.023942016","9.481039","stand up","0"
"18710350604264","3","0.20350714","0.035913024","9.476251","stand up","0"
"18710370562760","3","0.20350714","0.031124622","9.481039","stand up","0"
"18710390551774","3","0.21787235","0.033518825","9.481039","stand up","0"
"18710410479752","3","0.20350714","0.038307227","9.483433","stand up","0"
"18710430468766","3","0.20350714","0.033518825","9.478644","stand up","0"
"18710450427262","3","0.20590134","0.035913024","9.483433","stand up","0"
"18710470355240","3","0.20829555","0.02873042","9.478644","stand up","0"
"18710490313736","3","0.21787235","0.04309563","9.471462","stand up","0"
"18710510241715","3","0.20111294","0.031124622","9.469068","stand up","0"
"18710530230729","3","0.20350714","0.031124622","9.473856","stand up","0"
"18710550219742","3","0.20590134","0.02873042","9.471462","stand up","0"
"18710570178238","3","0.21068975","0.035913024","9.478644","stand up","0"
"18710590106217","3","0.20350714","0.035913024","9.471462","stand up","0"
"18710610095231","3","0.20111294","0.033518825","9.459491","stand up","0"
"18710630053727","3","0.19393034","0.02873042","9.478644","stand up","0"
"18710650042740","3","0.19632454","0.038307227","9.473856","stand up","0"
"18710670001236","3","0.19393034","0.035913024","9.490616","stand up","0"
"18710689929215","3","0.19871874","0.035913024","9.473856","stand up","0"
"18710709918229","3","0.21547815","0.031124622","9.473856","stand up","0"
"18710729876725","3","0.20590134","0.02873042","9.473856","stand up","0"
"18710749804703","3","0.19632454","0.035913024","9.481039","stand up","0"
"18710769763199","3","0.20590134","0.031124622","9.481039","stand up","0"
"18710789721695","3","0.21308395","0.02873042","9.473856","stand up","0"
"18710809704665","3","0.19393034","0.035913024","9.481039","stand up","0"
"18710829669205","3","0.20350714","0.02633622","9.481039","stand up","0"
"18710849627701","3","0.21308395","0.04070143","9.483433","stand up","0"
"18710869555680","3","0.20111294","0.038307227","9.476251","stand up","0"
"18710889544693","3","0.19632454","0.031124622","9.478644","stand up","0"
"18710909503190","3","0.19871874","0.035913024","9.478644","stand up","0"
"18710929461686","3","0.20829555","0.031124622","9.488221","stand up","0"
"18710949420182","3","0.20590134","0.02873042","9.481039","stand up","0"
"18710969378678","3","0.20350714","0.035913024","9.485827","stand up","0"
"18710989306656","3","0.20350714","0.02873042","9.473856","stand up","0"
"18711009295670","3","0.20829555","0.04070143","9.478644","stand up","0"
"18711029254166","3","0.21308395","0.023942016","9.478644","stand up","0"
"18711049212662","3","0.20350714","0.038307227","9.483433","stand up","0"
"18711069171158","3","0.20590134","0.047884032","9.476251","stand up","0"
"18711089160172","3","0.20590134","0.045489833","9.478644","stand up","0"
"18711109118668","3","0.21308395","0.035913024","9.471462","stand up","0"
"18711129107682","3","0.20590134","0.033518825","9.471462","stand up","0"
"18711149066178","3","0.19393034","0.02633622","9.476251","stand up","0"
"18711169024674","3","0.19871874","0.031124622","9.473856","stand up","0"
"18711188983170","3","0.20590134","0.038307227","9.469068","stand up","0"
"18711208911149","3","0.20350714","0.031124622","9.483433","stand up","0"
"18711228866127","3","0.20590134","0.038307227","9.469068","stand up","0"
"18711248827088","3","0.20590134","0.033518825","9.488221","stand up","0"
"18711268786637","3","0.20350714","0.035913024","9.483433","stand up","0"
"18711288714615","3","0.20829555","0.035913024","9.478644","stand up","0"
"18711308703629","3","0.21068975","0.033518825","9.473856","stand up","0"
"18711328662125","3","0.20829555","0.035913024","9.473856","stand up","0"
"18711348651139","3","0.21068975","0.035913024","9.473856","stand up","0"
"18711368609635","3","0.19871874","0.033518825","9.469068","stand up","0"
"18711388568131","3","0.20829555","0.031124622","9.471462","stand up","0"
"18711408526627","3","0.20350714","0.045489833","9.469068","stand up","0"
"18711428454606","3","0.21308395","0.031124622","9.481039","stand up","0"
"18711448443619","3","0.20350714","0.038307227","9.485827","stand up","0"
"18711468402115","3","0.20829555","0.02633622","9.469068","stand up","0"
"18711488330094","3","0.20590134","0.031124622","9.473856","stand up","0"
"18711508319108","3","0.19632454","0.033518825","9.473856","stand up","0"
"18711528277604","3","0.20111294","0.031124622","9.481039","stand up","0"
"18711548205582","3","0.20111294","0.021547815","9.471462","stand up","0"
"18711568194596","3","0.21547815","0.031124622","9.466674","stand up","0"
"18711588122574","3","0.20350714","0.035913024","9.481039","stand up","0"
"18711608111588","3","0.19871874","0.02873042","9.471462","stand up","0"
"18711628070084","3","0.21068975","0.02633622","9.476251","stand up","0"
"18711647998063","3","0.19871874","0.038307227","9.478644","stand up","0"
"18711667956559","3","0.20111294","0.031124622","9.466674","stand up","0"
"18711687915055","3","0.20111294","0.038307227","9.481039","stand up","0"
"18711707873551","3","0.20829555","0.02873042","9.485827","stand up","0"
"18711727832047","3","0.21068975","0.033518825","9.473856","stand up","0"
"18711747790543","3","0.19871874","0.02873042","9.481039","stand up","0"
"18711767749039","3","0.20829555","0.04070143","9.476251","stand up","0"
"18711787707535","3","0.20829555","0.038307227","9.476251","stand up","0"
"18711807666031","3","0.21068975","0.04070143","9.476251","stand up","0"
"18711827448840","3","0.20111294","0.02873042","9.473856","none","1"
"18711847376818","3","0.20829555","0.023942016","9.469068","none","1"
"18711867365832","3","0.21068975","0.038307227","9.471462","none","1"
"18711887324328","3","0.20590134","0.035913024","9.471462","none","1"
"18711907282824","3","0.21308395","0.02873042","9.476251","none","1"
"18711927241320","3","0.21308395","0.031124622","9.469068","none","1"
"18711947169299","3","0.21308395","0.031124622","9.473856","none","1"
"18711967127795","3","0.20111294","0.033518825","9.471462","none","1"
"18711987086291","3","0.20350714","0.035913024","9.471462","none","1"
"18712007075305","3","0.20590134","0.033518825","9.464279","none","1"
"18712027033801","3","0.20829555","0.038307227","9.481039","none","1"
"18712046992297","3","0.20590134","0.038307227","9.473856","none","1"
"18712066920275","3","0.20350714","0.031124622","9.473856","none","1"
"18712086909289","3","0.20590134","0.033518825","9.473856","none","1"
"18712106867785","3","0.20590134","0.04070143","9.469068","none","1"
"18712126826281","3","0.20590134","0.031124622","9.473856","none","1"
"18712146784777","3","0.21068975","0.04070143","9.466674","none","1"
"18712166743273","3","0.20590134","0.038307227","9.469068","none","1"
"18712186701770","3","0.21068975","0.035913024","9.466674","none","1"
"18712206660266","3","0.20829555","0.035913024","9.476251","none","1"
"18712226588244","3","0.20111294","0.035913024","9.478644","none","1"
"18712246577258","3","0.21308395","0.033518825","9.483433","none","1"
"18712266535754","3","0.21547815","0.035913024","9.481039","none","1"
"18712286463732","3","0.19871874","0.02633622","9.483433","none","1"
"18712306452746","3","0.20350714","0.023942016","9.471462","none","1"
"18712326411242","3","0.20829555","0.035913024","9.478644","none","1"
"18712346339221","3","0.20829555","0.031124622","9.490616","none","1"
"18712366297717","3","0.20590134","0.031124622","9.478644","none","1"
"18712386256213","3","0.20111294","0.02873042","9.481039","none","1"
"18712406245227","3","0.20111294","0.02873042","9.473856","none","1"
"18712426203723","3","0.21308395","0.047884032","9.469068","none","1"
"18712446162219","3","0.20111294","0.038307227","9.481039","none","1"
"18712466120715","3","0.21068975","0.021547815","9.464279","none","1"
"18712486109729","3","0.20350714","0.031124622","9.478644","none","1"
"18712506068225","3","0.21308395","0.031124622","9.471462","none","1"
"18712526026721","3","0.20829555","0.031124622","9.469068","none","1"
"18712545985217","3","0.20111294","0.02633622","9.478644","none","1"
"18712565913195","3","0.21068975","0.038307227","9.473856","none","1"
"18712585902209","3","0.20829555","0.035913024","9.469068","none","1"
"18712605860705","3","0.20350714","0.033518825","9.478644","none","1"
"18712625849719","3","0.20350714","0.031124622","9.476251","none","1"
"18712645808215","3","0.21787235","0.031124622","9.483433","none","1"
"18712665736193","3","0.20829555","0.038307227","9.478644","none","1"
"18712685725207","3","0.19393034","0.02633622","9.466674","none","1"
"18712705653186","3","0.19871874","0.031124622","9.476251","none","1"
"18712725611682","3","0.20590134","0.033518825","9.490616","none","1"
"18712745600695","3","0.20350714","0.031124622","9.481039","none","1"
"18712765559191","3","0.19871874","0.033518825","9.481039","none","1"
"18712785517688","3","0.20590134","0.033518825","9.469068","none","1"
"18712805476184","3","0.20829555","0.02873042","9.473856","none","1"
"18712825404162","3","0.21308395","0.02873042","9.476251","none","1"
"18712845393176","3","0.20829555","0.035913024","9.473856","none","1"
"18712865351672","3","0.21308395","0.035913024","9.471462","none","1"
"18712885310168","3","0.20590134","0.04309563","9.485827","none","1"
"18712905268664","3","0.20829555","0.031124622","9.471462","none","1"
"18712925227160","3","0.20111294","0.035913024","9.471462","none","1"
"18712945155139","3","0.20829555","0.023942016","9.481039","none","1"
"18712965144152","3","0.19393034","0.035913024","9.473856","none","1"
"18712985102648","3","0.21308395","0.035913024","9.466674","none","1"
"18713005061145","3","0.20829555","0.04309563","9.473856","none","1"
"18713025019641","3","0.20350714","0.023942016","9.473856","none","1"
"18713045008654","3","0.20590134","0.02873042","9.473856","none","1"
"18713064967150","3","0.20829555","0.04309563","9.478644","none","1"
"18713084895129","3","0.19871874","0.038307227","9.473856","none","1"
"18713104884143","3","0.21308395","0.04309563","9.478644","none","1"
"18713124842639","3","0.20590134","0.02873042","9.485827","none","1"
"18713144801135","3","0.20111294","0.031124622","9.473856","none","1"
"18713164759631","3","0.20111294","0.02873042","9.481039","none","1"
"18713184748645","3","0.20590134","0.031124622","9.488221","none","1"
"18713204707141","3","0.20350714","0.031124622","9.481039","none","1"
"18713224665637","3","0.19632454","0.02873042","9.471462","none","1"
"18713244624133","3","0.20111294","0.035913024","9.469068","none","1"
"18713264552111","3","0.21547815","0.02873042","9.485827","none","1"
"18713284541125","3","0.21547815","0.035913024","9.490616","none","1"
"18713304499621","3","0.21787235","0.031124622","9.481039","none","1"
"18713324458117","3","0.21308395","0.031124622","9.476251","none","1"
"18713344416613","3","0.20590134","0.031124622","9.476251","none","1"
"18713364375109","3","0.20829555","0.045489833","9.483433","none","1"
"18713384333605","3","0.20111294","0.02633622","9.473856","none","1"
"18713404292102","3","0.21547815","0.033518825","9.476251","none","1"
"18713424250598","3","0.20350714","0.02873042","9.485827","none","1"
"18713444239611","3","0.19871874","0.035913024","9.481039","none","1"
"18713464198107","3","0.20590134","0.033518825","9.478644","none","1"
"18713484156604","3","0.20111294","0.035913024","9.481039","none","1"
"18713504115100","3","0.20111294","0.031124622","9.476251","none","1"
"18713524043078","3","0.19871874","0.023942016","9.478644","none","1"
"18713543971057","3","0.20350714","0.031124622","9.471462","none","1"
"18713563929553","3","0.20350714","0.038307227","9.471462","none","1"
"18713583918566","3","0.20829555","0.033518825","9.481039","none","1"
"18713603907580","3","0.20350714","0.033518825","9.476251","none","1"
"18713623866076","3","0.20829555","0.035913024","9.469068","none","1"
"18713643824572","3","0.20111294","0.033518825","9.464279","none","1"
"18713663752551","3","0.20350714","0.02633622","9.483433","none","1"
"18713683741564","3","0.20590134","0.02873042","9.466674","none","1"
"18713703730578","3","0.21308395","0.035913024","9.473856","none","1"
"18713723689074","3","0.21547815","0.04070143","9.488221","none","1"
"18713743647570","3","0.19871874","0.038307227","9.473856","none","1"
"18713763606066","3","0.21068975","0.035913024","9.481039","none","1"
"18713783534045","3","0.20590134","0.02873042","9.481039","none","1"
"18713803492541","3","0.20590134","0.035913024","9.478644","none","1"
"18713823451037","3","0.20111294","0.031124622","9.481039","none","1"
"18713843440051","3","0.20350714","0.04070143","9.466674","none","1"
"18713863398547","3","0.21068975","0.035913024","9.481039","none","1"
"18713883357043","3","0.20829555","0.035913024","9.471462","none","1"
"18713903315539","3","0.20350714","0.02873042","9.476251","none","1"
"18713923243518","3","0.21308395","0.023942016","9.478644","none","1"
"18713943202014","3","0.19393034","0.031124622","9.478644","none","1"
"18713963160510","3","0.21068975","0.02633622","9.466674","none","1"
"18713983088488","3","0.21068975","0.035913024","9.483433","none","1"
"18714003077502","3","0.20350714","0.023942016","9.478644","none","1"
"18714023035998","3","0.20829555","0.031124622","9.483433","none","1"
"18714042963977","3","0.21068975","0.02633622","9.478644","none","1"
"18714062891955","3","0.20111294","0.035913024","9.481039","none","1"
"18714082880969","3","0.19871874","0.038307227","9.473856","none","1"
"18714102869982","3","0.21068975","0.035913024","9.473856","none","1"
"18714122828479","3","0.20350714","0.033518825","9.473856","none","1"
"18714142756457","3","0.21787235","0.02633622","9.481039","none","1"
"18714162684436","3","0.21068975","0.021547815","9.469068","none","1"
"18714182642932","3","0.19871874","0.02873042","9.478644","none","1"
"18714202601428","3","0.21068975","0.023942016","9.478644","none","1"
"18714222590441","3","0.20829555","0.04070143","9.473856","none","1"
"18714242548938","3","0.21308395","0.038307227","9.483433","none","1"
"18714262476916","3","0.20590134","0.038307227","9.485827","none","1"
"18714282404895","3","0.21547815","0.035913024","9.478644","none","1"
"18714302393908","3","0.20350714","0.04309563","9.483433","none","1"
"18714322382922","3","0.20350714","0.04070143","9.471462","none","1"
"18714342341418","3","0.21547815","0.038307227","9.481039","none","1"
"18714362299914","3","0.20590134","0.038307227","9.476251","none","1"
"18714382258410","3","0.21068975","0.038307227","9.473856","none","1"
"18714402186389","3","0.20829555","0.02873042","9.466674","none","1"
"18714422144885","3","0.21308395","0.031124622","9.478644","none","1"
"18714442103381","3","0.20590134","0.035913024","9.478644","none","1"
"18714462061877","3","0.20590134","0.045489833","9.471462","none","1"
"18714482020373","3","0.20590134","0.02873042","9.473856","none","1"
"18714501978869","3","0.21308395","0.035913024","9.473856","none","1"
"18714521906848","3","0.21787235","0.04309563","9.476251","none","1"
"18714541834826","3","0.21547815","0.02873042","9.469068","none","1"
"18714561823840","3","0.20829555","0.035913024","9.476251","none","1"
"18714581782336","3","0.21547815","0.035913024","9.481039","none","1"
"18714601740832","3","0.21308395","0.035913024","9.485827","none","1"
"18714621668811","3","0.21308395","0.035913024","9.485827","none","1"
"18714641657824","3","0.20350714","0.035913024","9.481039","none","1"
"18714661616320","3","0.21308395","0.038307227","9.476251","none","1"
"18714681574816","3","0.21068975","0.038307227","9.473856","none","1"
"18714701533313","3","0.20590134","0.035913024","9.469068","none","1"
"18714721491809","3","0.21068975","0.038307227","9.469068","none","1"
"18714741480822","3","0.20350714","0.035913024","9.471462","none","1"
"18714761439318","3","0.20829555","0.033518825","9.485827","none","1"
"18714781397814","3","0.21308395","0.02873042","9.473856","none","1"
"18714801356311","3","0.20829555","0.038307227","9.469068","none","1"
"18714821314807","3","0.20350714","0.031124622","9.461885","none","1"
"18714841273303","3","0.20590134","0.02873042","9.471462","none","1"
"18714861262316","3","0.21308395","0.031124622","9.478644","none","1"
"18714881220813","3","0.20590134","0.035913024","9.488221","none","1"
"18714901179309","3","0.19393034","0.02633622","9.478644","none","1"
"18714921107287","3","0.20829555","0.04070143","9.49301","none","1"
"18714941035266","3","0.20590134","0.02873042","9.481039","none","1"
"18714961024279","3","0.20350714","0.04070143","9.481039","none","1"
"18714980952258","3","0.20111294","0.035913024","9.466674","none","1"
"18715000910754","3","0.20829555","0.031124622","9.473856","none","1"
"18715020899768","3","0.20350714","0.035913024","9.478644","none","1"
"18715040858264","3","0.20829555","0.035913024","9.483433","none","1"
"18715060786242","3","0.20829555","0.035913024","9.471462","none","1"
"18715080775256","3","0.20829555","0.033518825","9.478644","none","1"
"18715100703234","3","0.20111294","0.04070143","9.478644","none","1"
"18715120631213","3","0.20590134","0.02633622","9.471462","none","1"
"18715140620227","3","0.20829555","0.02873042","9.466674","none","1"
"18715160578723","3","0.20829555","0.02633622","9.478644","none","1"
"18715180506701","3","0.21068975","0.033518825","9.483433","none","1"
"18715200495715","3","0.20590134","0.038307227","9.469068","none","1"
"18715220454211","3","0.20829555","0.033518825","9.481039","none","1"
"18715240412707","3","0.20829555","0.02873042","9.485827","none","1"
"18715260371203","3","0.21308395","0.033518825","9.466674","none","1"
"18715280360217","3","0.20590134","0.04070143","9.473856","none","1"
"18715300318713","3","0.20590134","0.033518825","9.471462","none","1"
"18715320246691","3","0.20829555","0.04070143","9.466674","none","1"
"18715340235705","3","0.21547815","0.02633622","9.471462","none","1"
"18715360194201","3","0.21308395","0.031124622","9.476251","none","1"
"18715380183215","3","0.20829555","0.035913024","9.473856","none","1"
"18715400111193","3","0.20111294","0.035913024","9.478644","none","1"
"18715420069689","3","0.20829555","0.038307227","9.478644","none","1"
"18715440058703","3","0.20590134","0.033518825","9.481039","none","1"
"18715460017199","3","0.20829555","0.02633622","9.483433","none","1"
"18715479945178","3","0.21068975","0.038307227","9.471462","none","1"
"18715499934191","3","0.20829555","0.038307227","9.478644","none","1"
"18715519892688","3","0.21547815","0.031124622","9.481039","none","1"
"18715539820666","3","0.20829555","0.033518825","9.481039","none","1"
"18715559779162","3","0.19393034","0.031124622","9.481039","none","1"
"18715579737658","3","0.20350714","0.045489833","9.469068","none","1"
"18715599696154","3","0.20111294","0.038307227","9.473856","none","1"
"18715619685168","3","0.20829555","0.023942016","9.478644","none","1"
"18715639643664","3","0.21068975","0.035913024","9.471462","none","1"
"18715659602160","3","0.20590134","0.035913024","9.469068","none","1"
"18715679560656","3","0.21308395","0.035913024","9.483433","none","1"
"18715699488635","3","0.20590134","0.02873042","9.488221","none","1"
"18715719447131","3","0.20829555","0.02873042","9.488221","none","1"
"18715739436145","3","0.21068975","0.04070143","9.476251","none","1"
"18715759394641","3","0.20829555","0.035913024","9.476251","none","1"
"18715779353137","3","0.20590134","0.02873042","9.478644","none","1"
"18715799311633","3","0.20829555","0.021547815","9.473856","sit down","1"
"18715819270129","3","0.22026655","0.04070143","9.483433","sit down","1"
"18715839198107","3","0.21787235","0.04309563","9.469068","sit down","1"
"18715859187121","3","0.21308395","0.038307227","9.476251","sit down","1"
"18715879115100","3","0.20829555","0.038307227","9.483433","sit down","1"
"18715899104113","3","0.20590134","0.031124622","9.483433","sit down","1"
"18715919062609","3","0.20829555","0.023942016","9.485827","sit down","1"
"18715939021105","3","0.21547815","0.038307227","9.476251","sit down","1"
"18715958979602","3","0.22266077","0.035913024","9.478644","sit down","1"
"18715978968615","3","0.21547815","0.035913024","9.473856","sit down","1"
"18715998927111","3","0.21068975","0.035913024","9.478644","sit down","1"
"18716018916125","3","0.20111294","0.02873042","9.469068","sit down","1"
"18716038874621","3","0.20590134","0.031124622","9.473856","sit down","1"
"18716058802600","3","0.21308395","0.035913024","9.483433","sit down","1"
"18716078761096","3","0.21308395","0.035913024","9.476251","sit down","1"
"18716098689074","3","0.20829555","0.031124622","9.464279","sit down","1"
"18716118678088","3","0.20829555","0.04309563","9.471462","sit down","1"
"18716138667102","3","0.20590134","0.035913024","9.476251","sit down","1"
"18716158625598","3","0.21547815","0.033518825","9.459491","sit down","1"
"18716178584094","3","0.20829555","0.035913024","9.481039","sit down","1"
"18716198542590","3","0.20829555","0.038307227","9.478644","sit down","1"
"18716218501086","3","0.20590134","0.047884032","9.481039","sit down","1"
"18716238490100","3","0.21547815","0.038307227","9.473856","sit down","1"
"18716258448596","3","0.20350714","0.035913024","9.473856","sit down","1"
"18716278407092","3","0.20111294","0.035913024","9.473856","sit down","1"
"18716298365588","3","0.21308395","0.033518825","9.473856","sit down","1"
"18716318324084","3","0.20590134","0.038307227","9.471462","sit down","1"
"18716338252063","3","0.20590134","0.019153614","9.476251","sit down","1"
"18716358241076","3","0.20590134","0.04309563","9.483433","sit down","1"
"18716378199572","3","0.20829555","0.023942016","9.473856","sit down","1"
"18716398158068","3","0.20590134","0.02633622","9.471462","sit down","1"
"18716418116564","3","0.20590134","0.031124622","9.473856","sit down","1"
"18716438044543","3","0.21308395","0.02873042","9.473856","sit down","1"
"18716458033557","3","0.20829555","0.02633622","9.478644","sit down","1"
"18716478022570","3","0.20590134","0.02873042","9.478644","sit down","1"
"18716498011584","3","0.21787235","0.035913024","9.478644","sit down","1"
"18716517970080","3","0.20111294","0.02873042","9.473856","sit down","1"
"18716537928576","3","0.21068975","0.031124622","9.478644","sit down","1"
"18716557887072","3","0.21787235","0.02873042","9.476251","sit down","1"
"18716577845568","3","0.20590134","0.033518825","9.476251","sit down","1"
"18716597804064","3","0.21068975","0.033518825","9.485827","sit down","1"
"18716617762561","3","0.21547815","0.02873042","9.473856","sit down","1"
"18716637751574","3","0.20829555","0.04070143","9.483433","sit down","1"
"18716657679553","3","0.20350714","0.038307227","9.481039","sit down","1"
"18716677668566","3","0.20590134","0.035913024","9.488221","sit down","1"
"18716697596545","3","0.21308395","0.031124622","9.473856","sit down","1"
"18716717555041","3","0.20111294","0.031124622","9.466674","sit down","1"
"18716737544055","3","0.21308395","0.038307227","9.488221","sit down","1"
"18716757502551","3","0.20829555","0.038307227","9.461885","sit down","1"
"18716777461047","3","0.20350714","0.02873042","9.466674","sit down","1"
"18716797419543","3","0.21787235","0.031124622","9.483433","sit down","1"
"18716817347522","3","0.20829555","0.021547815","9.481039","sit down","1"
"18716837306018","3","0.20350714","0.045489833","9.464279","sit down","1"
"18716857295031","3","0.20829555","0.035913024","9.478644","sit down","1"
"18716877253527","3","0.20350714","0.038307227","9.490616","sit down","1"
"18716897212023","3","0.20590134","0.031124622","9.473856","sit down","1"
"18716917170520","3","0.21547815","0.035913024","9.476251","sit down","1"
"18716937129016","3","0.20829555","0.02873042","9.466674","sit down","1"
"18716957118029","3","0.18914193","0.031124622","9.466674","sit down","1"
"18716977076525","3","0.21068975","0.023942016","9.512163","sit down","1"
"18716997035022","3","0.19632454","0.05267244","9.560047","sit down","1"
"18717016993518","3","0.20350714","0.038307227","9.3733","sit down","1"
"18717036952014","3","0.2633622","0.016759412","9.411607","sit down","1"
"18717056941027","3","0.2896984","0.031124622","9.490616","sit down","1"
"18717076899523","3","0.19393034","0.035913024","9.378088","sit down","1"
"18717096888537","3","0.18435353","0.08379706","9.416395","sit down","1"
"18717116847033","3","0.095768064","0.021547815","9.397242","sit down","1"
"18717136775012","3","0.090979666","0.023942016","9.28232","sit down","1"
"18717156764025","3","0.36870706","0.059855044","9.421184","sit down","1"
"18717176722522","3","0.23463176","0.0047884034","9.82341","sit down","1"
"18717196650500","3","0.24899697","0.047884032","9.49301","sit down","1"
"18717216639514","3","0.28491","0.05267244","9.744401","sit down","1"
"18717236598010","3","0.22984336","0.047884032","9.490616","sit down","1"
"18717256556506","3","0.23223756","0.023942016","9.414001","sit down","1"
"18717276515002","3","0.22026655","0.033518825","9.433155","sit down","1"
"18717296473498","3","0.19871874","0.033518825","9.380483","sit down","1"
"18717316431994","3","0.20350714","0.033518825","9.414001","sit down","1"
"18717336421008","3","0.21068975","0.047884032","9.452309","sit down","1"
"18717356379504","3","0.23463176","0.045489833","9.445126","sit down","1"
"18717376338000","3","0.23702596","0.04070143","9.409213","sit down","1"
"18717396296496","3","0.24899697","0.050278235","9.435549","sit down","1"
"18717416254992","3","0.23463176","0.045489833","9.416395","sit down","1"
"18717436182971","3","0.28491","0.038307227","9.528923","sit down","1"
"18717456171984","3","0.25857377","0.04070143","9.502586","sit down","1"
"18717476099963","3","0.29209262","0.04309563","9.55047","sit down","1"
"18717496088977","3","0.31603462","0.047884032","9.552865","sit down","1"
"18717516047473","3","0.260968","0.050278235","9.502586","sit down","1"
"18717536005969","3","0.23463176","0.038307227","9.519346","sit down","1"
"18717555964465","3","0.23223756","0.045489833","9.464279","sit down","1"
"18717575922961","3","0.23942018","0.05267244","9.44752","sit down","1"
"18717595881457","3","0.23223756","0.045489833","9.473856","sit down","1"
"18717615809436","3","0.21547815","0.045489833","9.440337","sit down","1"
"18717635767932","3","0.23702596","0.055066638","9.452309","sit down","1"
"18717655695910","3","0.23702596","0.047884032","9.464279","sit down","1"
"18717675654406","3","0.22505496","0.045489833","9.483433","sit down","1"
"18717695582385","3","0.25857377","0.04309563","9.481039","sit down","1"
"18717715571398","3","0.24899697","0.04309563","9.49301","sit down","1"
"18717735529895","3","0.260968","0.04309563","9.478644","sit down","1"
"18717755457873","3","0.260968","0.045489833","9.478644","sit down","1"
"18717775416369","3","0.2753332","0.045489833","9.478644","sit down","1"
"18717795374865","3","0.25857377","0.047884032","9.469068","sit down","1"
"18717815333361","3","0.272939","0.045489833","9.459491","sit down","1"
"18717835291857","3","0.2753332","0.05267244","9.49301","sit down","1"
"18717855280871","3","0.29209262","0.045489833","9.500193","sit down","1"
"18717875239367","3","0.2681506","0.059855044","9.483433","sit down","1"
"18717895197863","3","0.2633622","0.02873042","9.509769","sit down","1"
"18717915156359","3","0.24420857","0.045489833","9.483433","sit down","1"
"18717935145373","3","0.24420857","0.05267244","9.478644","sit down","1"
"18717955103869","3","0.23942018","0.055066638","9.452309","sit down","1"
"18717975062365","3","0.24181437","0.055066638","9.449914","sit down","1"
"18717995020861","3","0.24660277","0.055066638","9.459491","sit down","1"
"18718014979357","3","0.24899697","0.055066638","9.473856","sit down","1"
"18718034937854","3","0.24660277","0.05267244","9.473856","sit down","1"
"18718054865832","3","0.25857377","0.045489833","9.461885","sit down","1"
"18718074824328","3","0.25378537","0.05267244","9.478644","sit down","1"
"18718094752307","3","0.25139117","0.05746084","9.485827","sit down","1"
"18718114741320","3","0.2633622","0.047884032","9.49301","sit down","1"
"18718134730334","3","0.2705448","0.05267244","9.478644","sit down","1"
"18718154688830","3","0.2633622","0.059855044","9.485827","sit down","1"
"18718174647326","3","0.260968","0.055066638","9.478644","sit down","1"
"18718194605822","3","0.25617957","0.050278235","9.461885","sit down","1"
"18718214564318","3","0.25139117","0.050278235","9.476251","sit down","1"
"18718234492297","3","0.2633622","0.047884032","9.481039","sit down","1"
"18718254481311","3","0.25617957","0.059855044","9.469068","sit down","1"
"18718274409289","3","0.2657564","0.050278235","9.461885","sit down","1"
"18718294398303","3","0.25617957","0.055066638","9.473856","sit down","1"
"18718314356799","3","0.25378537","0.05746084","9.473856","sit down","1"
"18718334315295","3","0.25378537","0.050278235","9.476251","sit down","1"
"18718354243273","3","0.24899697","0.045489833","9.476251","sit down","1"
"18718374201770","3","0.25617957","0.05746084","9.478644","sit down","1"
"18718394160266","3","0.260968","0.050278235","9.481039","sit down","1"
"18718414088244","3","0.25617957","0.05746084","9.476251","sit down","1"
"18718434046740","3","0.25378537","0.05267244","9.488221","sit down","1"
"18718454035754","3","0.24420857","0.04309563","9.478644","sit down","1"
"18718473994250","3","0.25378537","0.045489833","9.481039","sit down","1"
"18718493952746","3","0.260968","0.050278235","9.473856","sit down","1"
"18718513911242","3","0.24660277","0.045489833","9.469068","sit down","1"
"18718533869738","3","0.25617957","0.047884032","9.478644","sit down","1"
"18718553828234","3","0.25617957","0.04070143","9.476251","sit down","1"
"18718573783929","3","0.25617957","0.050278235","9.473856","sit down","1"
"18718593739314","3","0.25378537","0.05267244","9.473856","sit down","1"
"18718613703723","3","0.25617957","0.045489833","9.473856","sit down","1"
"18718633631701","3","0.25617957","0.059855044","9.471462","sit down","1"
"18718653620715","3","0.260968","0.050278235","9.483433","sit down","1"
"18718673548693","3","0.25139117","0.047884032","9.473856","sit down","1"
"18718693537707","3","0.24899697","0.045489833","9.481039","sit down","1"
"18718713496203","3","0.25139117","0.047884032","9.478644","sit down","1"
"18718733454699","3","0.25378537","0.055066638","9.473856","sit down","1"
"18718753413195","3","0.25139117","0.047884032","9.478644","sit down","1"
"18718773402209","3","0.25617957","0.050278235","9.485827","sit down","1"
"18718793330188","3","0.24899697","0.04070143","9.476251","sit down","1"
"18718813319201","3","0.2633622","0.045489833","9.471462","sit down","1"
"18718833277697","3","0.24899697","0.062249243","9.478644","sit down","1"
"18718853236193","3","0.24420857","0.04070143","9.478644","sit down","1"
"18718873194689","3","0.24899697","0.038307227","9.469068","sit down","1"
"18718893122668","3","0.24181437","0.050278235","9.476251","sit down","1"
"18718913081164","3","0.25139117","0.035913024","9.481039","sit down","1"
"18718933009143","3","0.260968","0.038307227","9.476251","sit down","1"
"18718952998156","3","0.25378537","0.050278235","9.478644","sit down","1"
"18718972926135","3","0.25139117","0.050278235","9.478644","sit down","1"
"18718992884631","3","0.25139117","0.045489833","9.471462","sit down","1"
"18719012873645","3","0.24181437","0.04309563","9.471462","sit down","1"
"18719032832141","3","0.25857377","0.047884032","9.478644","sit down","1"
"18719052760119","3","0.25139117","0.045489833","9.476251","sit down","1"
"18719072718615","3","0.25617957","0.04070143","9.478644","sit down","1"
"18719092707629","3","0.25378537","0.038307227","9.483433","sit down","1"
"18719112635607","3","0.24660277","0.050278235","9.459491","sit down","1"
"18719132594104","3","0.24899697","0.05267244","9.476251","sit down","1"
"18719152552600","3","0.25378537","0.047884032","9.483433","sit down","1"
"18719172541613","3","0.25857377","0.050278235","9.478644","sit down","1"
"18719192500109","3","0.260968","0.047884032","9.478644","sit down","1"
"18719212489123","3","0.25617957","0.055066638","9.488221","sit down","1"
"18719232447619","3","0.25617957","0.050278235","9.476251","sit down","1"
"18719252406115","3","0.24899697","0.05746084","9.476251","sit down","1"
"18719272364611","3","0.260968","0.04309563","9.49301","sit down","1"
"18719292323107","3","0.25139117","0.045489833","9.469068","sit down","1"
"18719312281604","3","0.25378537","0.047884032","9.485827","sit down","1"
"18719332270617","3","0.25139117","0.055066638","9.481039","sit down","1"
"18719352229113","3","0.25857377","0.047884032","9.469068","sit down","1"
"18719372157092","3","0.25139117","0.050278235","9.469068","sit down","1"
"18719392115588","3","0.25857377","0.050278235","9.473856","sit down","1"
"18719412104602","3","0.25617957","0.04309563","9.481039","sit down","1"
"18719432063098","3","0.25617957","0.045489833","9.469068","sit down","1"
"18719451991076","3","0.24899697","0.050278235","9.473856","sit down","1"
"18719471949572","3","0.25617957","0.05746084","9.485827","sit down","1"
"18719491908068","3","0.25617957","0.050278235","9.478644","sit down","1"
"18719511866564","3","0.25617957","0.05267244","9.471462","sit down","1"
"18719531855578","3","0.25617957","0.04309563","9.481039","sit down","1"
"18719551814074","3","0.25139117","0.047884032","9.478644","sit down","1"
"18719571742053","3","0.25617957","0.05267244","9.481039","sit down","1"
"18719591731066","3","0.25378537","0.055066638","9.481039","sit down","1"
"18719611689563","3","0.25617957","0.055066638","9.478644","sit down","1"
"18719631617541","3","0.25139117","0.055066638","9.481039","sit down","1"
"18719651576037","3","0.25857377","0.05267244","9.488221","sit down","1"
"18719671504016","3","0.25139117","0.05267244","9.478644","sit down","1"
"18719691493029","3","0.25857377","0.05746084","9.469068","sit down","1"
"18719711421008","3","0.24660277","0.047884032","9.473856","sit down","1"
"18719731410022","3","0.25139117","0.05746084","9.473856","sit down","1"
"18719751368518","3","0.25617957","0.04309563","9.478644","sit down","1"
"18719771327014","3","0.260968","0.050278235","9.490616","sit down","1"
"18719791285510","3","0.25378537","0.047884032","9.478644","lay down","1"
"18719811244006","3","0.24899697","0.038307227","9.466674","lay down","1"
"18719831202502","3","0.2633622","0.05267244","9.469068","lay down","1"
"18719851191516","3","0.25378537","0.05267244","9.476251","lay down","1"
"18719871119494","3","0.25139117","0.050278235","9.481039","lay down","1"
"18719891108508","3","0.25857377","0.045489833","9.483433","lay down","1"
"18719911057197","3","0.24899697","0.059855044","9.476251","lay down","1"
"18719930994982","3","0.25139117","0.04070143","9.473856","lay down","1"
"18719950983996","3","0.260968","0.050278235","9.478644","lay down","1"
"18719970942492","3","0.25139117","0.055066638","9.488221","lay down","1"
"18719990900988","3","0.25378537","0.050278235","9.473856","lay down","1"
"18720010890002","3","0.24899697","0.05267244","9.483433","lay down","1"
"18720030834466","3","0.25139117","0.045489833","9.476251","lay down","1"
"18720050806994","3","0.25139117","0.050278235","9.466674","lay down","1"
"18720070796008","3","0.24660277","0.047884032","9.459491","lay down","1"
"18720090723986","3","0.25139117","0.04309563","9.495404","lay down","1"
"18720110682482","3","0.25139117","0.045489833","9.466674","lay down","1"
"18720130671496","3","0.2705448","0.045489833","9.516952","lay down","1"
"18720150629992","3","0.25139117","0.045489833","9.466674","lay down","1"
"18720170588488","3","0.24899697","0.05746084","9.495404","lay down","1"
"18720190546984","3","0.2777274","0.05746084","9.406818","lay down","1"
"18720210505480","3","0.22744916","0.031124622","9.440337","lay down","1"
"18720230433459","3","0.24181437","0.045489833","9.490616","lay down","1"
"18720250422473","3","0.23223756","0.059855044","9.459491","lay down","1"
"18720270380969","3","0.25617957","0.055066638","9.495404","lay down","1"
"18720290339465","3","0.25857377","0.05746084","9.481039","lay down","1"
"18720310297961","3","0.25139117","0.05267244","9.461885","lay down","1"
"18720330286975","3","0.25378537","0.059855044","9.464279","lay down","1"
"18720350245471","3","0.2705448","0.055066638","9.471462","lay down","1"
"18720370203967","3","0.2705448","0.06703765","9.464279","lay down","1"
"18720390162463","3","0.25378537","0.050278235","9.488221","lay down","1"
"18720410090441","3","0.25617957","0.05267244","9.507375","lay down","1"
"18720430048938","3","0.25378537","0.047884032","9.483433","lay down","1"
"18720449976916","3","0.25139117","0.055066638","9.459491","lay down","1"
"18720469965930","3","0.25617957","0.050278235","9.490616","lay down","1"
"18720489954943","3","0.25617957","0.04309563","9.483433","lay down","1"
"18720509913439","3","0.23223756","0.06464344","9.469068","lay down","1"
"18720529871936","3","0.25617957","0.047884032","9.478644","lay down","1"
"18720549794312","3","0.24899697","0.05746084","9.466674","lay down","1"
"18720569758410","3","0.24420857","0.05746084","9.471462","lay down","1"
"18720589716906","3","0.23463176","0.05746084","9.476251","lay down","1"
"18720609675402","3","0.25139117","0.05267244","9.43076","lay down","1"
"18720629664416","3","0.24420857","0.035913024","9.526528","lay down","1"
"18720649613235","3","0.25139117","0.047884032","9.478644","lay down","1"
"18720669581408","3","0.2705448","0.045489833","9.476251","lay down","1"
"18720689539904","3","0.22984336","0.02873042","9.500193","lay down","1"
"18720709449081","3","0.23223756","0.04309563","9.433155","lay down","1"
"18720729395861","3","0.23702596","0.04309563","9.469068","lay down","1"
"18720749354357","3","0.23942018","0.04309563","9.516952","lay down","1"
"18720769312854","3","0.24420857","0.038307227","9.461885","lay down","1"
"18720789301867","3","0.24181437","0.038307227","9.461885","lay down","1"
"18720809207658","3","0.23463176","0.047884032","9.471462","lay down","1"
"18720829171812","3","0.24660277","0.038307227","9.454702","lay down","1"
"18720849116320","3","0.24181437","0.050278235","9.461885","lay down","1"
"18720869105334","3","0.2657564","0.02633622","9.457097","lay down","1"
"18720889080043","3","0.24181437","0.038307227","9.428367","lay down","1"
"18720909033389","3","0.25617957","0.04309563","9.512163","lay down","1"
"18720929011340","3","0.25857377","0.04070143","9.481039","lay down","1"
"18720948969836","3","0.2801216","0.02633622","9.409213","lay down","1"
"18720968928332","3","0.2633622","-0.016759412","9.603143","lay down","1"
"18720988886828","3","0.24181437","0.059855044","9.536105","lay down","1"
"18721008837504","3","0.23463176","0.009576807","9.454702","lay down","1"
"18721028798773","3","0.22984336","0.047884032","9.469068","lay down","1"
"18721048769081","3","0.24420857","0.01436521","9.394848","lay down","1"
"18721068751330","3","0.2681506","0.02633622","9.43076","lay down","1"
"18721088721773","3","0.2633622","0.019153614","9.473856","lay down","1"
"18721108698840","3","0.2777274","0.04309563","9.52174","lay down","1"
"18721128619619","3","0.2777274","0.04070143","9.411607","lay down","1"
"18721148585314","3","0.2705448","0.02633622","9.437943","lay down","1"
"18721168553158","3","0.2681506","0.02873042","9.526528","lay down","1"
"18721188563342","3","0.260968","0.05267244","9.437943","lay down","1"
"18721208493812","3","0.2657564","0.031124622","9.507375","lay down","1"
"18721228465735","3","0.24660277","0.01436521","9.488221","lay down","1"
"18721248438830","3","0.25378537","0.021547815","9.497798","lay down","1"
"18721268427844","3","0.21787235","0.01436521","9.526528","lay down","1"
"18721288416857","3","0.24181437","0.021547815","9.464279","lay down","1"
"18721308365773","3","0.25139117","0.007182605","9.452309","lay down","1"
"18721328333850","3","0.24899697","0.007182605","9.457097","lay down","1"
"18721348292346","3","0.25857377","0.0023942017","9.433155","lay down","1"
"18721368281359","3","0.25378537","0.016759412","9.56723","lay down","1"
"18721388233965","3","0.24899697","0.019153614","9.485827","lay down","1"
"18721408198352","3","0.2801216","0.031124622","9.490616","lay down","1"
"18721428156848","3","0.2777274","0.02633622","9.540894","lay down","1"
"18721448145861","3","0.260968","0.011971008","9.464279","lay down","1"
"18721468073840","3","0.2825158","0.021547815","9.368511","lay down","1"
"18721488062854","3","0.2705448","0.023942016","9.524135","lay down","1"
"18721508014927","3","0.2657564","0.007182605","9.437943","lay down","1"
"18721527979846","3","0.24181437","0.01436521","9.461885","lay down","1"
"18721547938342","3","0.2681506","0.007182605","9.495404","lay down","1"
"18721567927355","3","0.22744916","0.050278235","9.485827","lay down","1"
"18721587909273","3","0.29448682","-0.007182605","9.56723","lay down","1"
"18721607851811","3","0.2777274","-0.019153614","9.61272","lay down","1"
"18721627810619","3","0.25857377","0.019153614","9.421184","lay down","1"
"18721647791857","3","0.22984336","0.04309563","9.452309","lay down","1"
"18721667780871","3","0.25139117","0.023942016","9.473856","lay down","1"
"18721687718811","3","0.25857377","0.035913024","9.378088","lay down","1"
"18721707653234","3","0.23463176","0.009576807","9.454702","lay down","1"
"18721727595324","3","0.22744916","-0.023942016","9.531317","lay down","1"
"18721747584338","3","0.22266077","-0.016759412","9.449914","lay down","1"
"18721767515311","3","0.23223756","-0.031124622","9.437943","lay down","1"
"18721787501330","3","0.23463176","-0.01436521","9.464279","lay down","1"
"18721807445234","3","0.22744916","-0.0047884034","9.433155","lay down","1"
"18721827418322","3","0.23463176","-0.009576807","9.485827","lay down","1"
"18721847407336","3","0.2633622","-0.007182605","9.502586","lay down","1"
"18721867335314","3","0.25857377","-0.009576807","9.394848","lay down","1"
"18721887275427","3","0.22266077","0.021547815","9.536105","lay down","1"
"18721907282824","3","0.29688102","-0.031124622","9.392453","lay down","1"
"18721927210803","3","0.22744916","-0.011971008","9.454702","lay down","1"
"18721947169299","3","0.29927522","0.019153614","9.536105","lay down","1"
"18721967127795","3","0.17717093","-0.17477672","9.557653","lay down","1"
"18721987086291","3","0.2657564","0.08619126","9.440337","lay down","1"
"18722007075305","3","0.30645782","0.011971008","9.672575","lay down","1"
"18722027003311","3","0.34476504","0.16998832","9.315839","lay down","1"
"18722046992297","3","0.2801216","0.04070143","9.514558","lay down","1"
"18722066950793","3","0.24899697","0.047884032","9.593566","lay down","1"
"18722086878772","3","0.2657564","-0.1388637","9.524135","lay down","1"
"18722106849619","3","0.21547815","0.10295067","9.289502","lay down","1"
"18722126812696","3","0.24899697","0.11492168","9.533711","lay down","1"
"18722146784777","3","0.21068975","0.035913024","9.466674","lay down","1"
"18722166709888","3","0.2825158","0.076614454","9.564836","lay down","1"
"18722186671252","3","0.2896984","0.11492168","9.524135","lay down","1"
"18722206629748","3","0.23223756","0.08619126","9.394848","lay down","1"
"18722226618762","3","0.2705448","0.10534488","9.55047","lay down","1"
"18722246546740","3","0.2705448","0.05267244","9.483433","lay down","1"
"18722266505236","3","0.22266077","0.088585466","9.437943","lay down","1"
"18722286412888","3","0.2825158","0.08140286","9.545682","lay down","1"
"18722306422229","3","0.24899697","0.06703765","9.488221","lay down","1"
"18722326347696","3","0.23223756","0.062249243","9.370906","lay down","1"
"18722346308703","3","0.24660277","0.093373865","9.43076","lay down","1"
"18722366232734","3","0.24420857","0.01436521","9.452309","lay down","1"
"18722386256213","3","0.22744916","0.079008654","9.404425","lay down","1"
"18722406214709","3","0.24181437","0.050278235","9.435549","lay down","1"
"18722426173205","3","0.20111294","0.06703765","9.433155","lay down","1"
"18722446067426","3","0.36391866","0.05746084","9.464279","lay down","1"
"18722466059680","3","0.37588966","0.06703765","9.512163","lay down","1"
"18722485973465","3","0.35434186","0.08619126","9.569624","lay down","1"
"18722505945465","3","0.2801216","0.07182605","9.514558","lay down","1"
"18722525895503","3","0.2873042","0.062249243","9.495404","lay down","1"
"18722545924182","3","0.2633622","0.062249243","9.488221","lay down","1"
"18722565834042","3","0.15322891","0.1436521","9.507375","lay down","1"
"18722585799195","3","0.39743748","0.045489833","9.157822","lay down","1"
"18722605799670","3","0.24420857","-0.01436521","9.449914","lay down","1"
"18722625674965","3","0.24420857","0.107739076","9.579201","lay down","1"
"18722645668311","3","0.25139117","0.02873042","9.454702","lay down","1"
"18722665652118","3","0.24420857","0.110133275","9.502586","lay down","1"
"18722685633654","3","0.2825158","0.05267244","9.461885","lay down","1"
"18722705622668","3","0.20350714","0.023942016","9.41879","lay down","1"
"18722725525734","3","0.24420857","0.035913024","9.478644","lay down","1"
"18722745466541","3","0.320823","0.04070143","9.449914","lay down","1"
"18722765467639","3","0.3184288","0.059855044","9.442732","lay down","1"
"18722785426135","3","0.31364042","0.050278235","9.507375","lay down","1"
"18722805352349","3","0.29927522","0.02873042","9.524135","lay down","1"
"18722825373645","3","0.260968","0.01436521","9.502586","lay down","1"
"18722845301849","3","0.25378537","0.038307227","9.483433","lay down","1"
"18722865290637","3","0.25857377","0.062249243","9.478644","lay down","1"
"18722885218615","3","0.23942018","0.050278235","9.437943","lay down","1"
"18722905207629","3","0.25617957","0.050278235","9.488221","lay down","1"
"18722925166125","3","0.24899697","0.04070143","9.469068","lay down","1"
"18722945119464","3","0.23702596","0.035913024","9.459491","lay down","1"
"18722965055734","3","0.2705448","0.023942016","9.464279","lay down","1"
"18722985030041","3","0.2705448","0.045489833","9.481039","lay down","1"
"18723004922618","3","0.2777274","0.038307227","9.495404","lay down","1"
"18723024958605","3","0.2705448","0.04309563","9.49301","lay down","1"
"18723044868541","3","0.2705448","0.047884032","9.485827","lay down","1"
"18723064819657","3","0.2705448","0.038307227","9.473856","lay down","1"
"18723084834094","3","0.25617957","0.038307227","9.481039","lay down","1"
"18723104762072","3","0.25378537","0.038307227","9.445126","lay down","1"
"18723124695772","3","0.2705448","0.047884032","9.464279","lay down","1"
"18723144709582","3","0.25857377","0.045489833","9.466674","lay down","1"
"18723164641618","3","0.25857377","0.047884032","9.476251","lay down","1"
"18723184626574","3","0.2681506","0.050278235","9.464279","lay down","1"
"18723204554553","3","0.2705448","0.038307227","9.488221","lay down","1"
"18723224513049","3","0.2633622","0.045489833","9.485827","lay down","1"
"18723244502063","3","0.2753332","0.05746084","9.473856","lay down","1"
"18723264395310","3","0.2657564","0.033518825","9.471462","lay down","1"
"18723284419055","3","0.2681506","0.04070143","9.473856","lay down","1"
"18723304377551","3","0.2681506","0.047884032","9.466674","lay down","1"
"18723324305529","3","0.2633622","0.045489833","9.469068","lay down","1"
"18723344264025","3","0.2633622","0.035913024","9.471462","lay down","1"
"18723364202772","3","0.2633622","0.050278235","9.481039","lay down","1"
"18723384211535","3","0.2633622","0.045489833","9.478644","lay down","1"
"18723404170031","3","0.2633622","0.045489833","9.478644","lay down","1"
"18723424098010","3","0.2681506","0.055066638","9.49301","lay down","1"
"18723444025988","3","0.2633622","0.045489833","9.473856","lay down","1"
"18723464015002","3","0.2633622","0.045489833","9.481039","lay down","1"
"18723483973498","3","0.2633622","0.05267244","9.473856","lay down","1"
"18723503901477","3","0.25617957","0.04070143","9.473856","lay down","1"
"18723523829455","3","0.25378537","0.038307227","9.471462","lay down","1"
"18723543818469","3","0.2705448","0.04309563","9.481039","lay down","1"
"18723563746447","3","0.260968","0.04070143","9.478644","lay down","1"
"18723583735461","3","0.2657564","0.05267244","9.488221","lay down","1"
"18723603663348","3","0.2633622","0.05267244","9.476251","lay down","1"
"18723623652453","3","0.25139117","0.04309563","9.473856","lay down","1"
"18723643580432","3","0.2681506","0.047884032","9.478644","lay down","1"
"18723663569445","3","0.2681506","0.045489833","9.476251","lay down","1"
"18723683558459","3","0.2681506","0.050278235","9.478644","lay down","1"
"18723703516955","3","0.272939","0.05267244","9.471462","lay down","1"
"18723723444934","3","0.2633622","0.047884032","9.464279","lay down","1"
"18723743372912","3","0.2657564","0.05267244","9.476251","lay down","1"
"18723763361926","3","0.2681506","0.050278235","9.481039","lay down","1"
"18723783320422","3","0.2657564","0.04070143","9.471462","sit up","1"
"18723803242310","3","0.2753332","0.045489833","9.476251","sit up","1"
"18723823206579","3","0.2681506","0.04309563","9.466674","sit up","1"
"18723843195910","3","0.2657564","0.050278235","9.478644","sit up","1"
"18723863131694","3","0.2633622","0.04070143","9.466674","sit up","1"
"18723883143420","3","0.2657564","0.050278235","9.481039","sit up","1"
"18723903028425","3","0.25617957","0.050278235","9.473856","sit up","1"
"18723922995156","3","0.2657564","0.035913024","9.481039","sit up","1"
"18723943018908","3","0.2705448","0.050278235","9.488221","sit up","1"
"18723962944041","3","0.2681506","0.050278235","9.476251","sit up","1"
"18723982935900","3","0.2657564","0.047884032","9.469068","sit up","1"
"18724002811579","3","0.2633622","0.04309563","9.481039","sit up","1"
"18724022771310","3","0.260968","0.038307227","9.471462","sit up","1"
"18724042739310","3","0.2657564","0.04309563","9.481039","sit up","1"
"18724062725925","3","0.2633622","0.045489833","9.469068","sit up","1"
"18724082672464","3","0.25857377","0.04309563","9.471462","sit up","1"
"18724102656359","3","0.2681506","0.050278235","9.471462","sit up","1"
"18724122639925","3","0.260968","0.04309563","9.469068","sit up","1"
"18724142603869","3","0.2681506","0.047884032","9.473856","sit up","1"
"18724162483079","3","0.2657564","0.050278235","9.457097","sit up","1"
"18724182520861","3","0.260968","0.045489833","9.473856","sit up","1"
"18724202422502","3","0.272939","0.04309563","9.476251","sit up","1"
"18724222407336","3","0.2657564","0.047884032","9.478644","sit up","1"
"18724242353156","3","0.260968","0.04309563","9.483433","sit up","1"
"18724262319694","3","0.2681506","0.045489833","9.476251","sit up","1"
"18724282227156","3","0.25139117","0.04070143","9.485827","sit up","1"
"18724302271838","3","0.2633622","0.04070143","9.466674","sit up","1"
"18724322199816","3","0.2633622","0.04309563","9.440337","sit up","1"
"18724342158313","3","0.2681506","0.04070143","9.452309","sit up","1"
"18724362057771","3","0.2801216","0.047884032","9.473856","sit up","1"
"18724382105822","3","0.25857377","0.04309563","9.49301","sit up","1"
"18724402064318","3","0.2705448","0.045489833","9.469068","sit up","1"
"18724422022814","3","0.2705448","0.04070143","9.461885","sit up","1"
"18724441914271","3","0.2681506","0.04309563","9.507375","sit up","1"
"18724461970324","3","0.2633622","0.04309563","9.469068","sit up","1"
"18724481876194","3","0.2657564","0.055066638","9.440337","sit up","1"
"18724501864232","3","0.2825158","0.047884032","9.473856","sit up","1"
"18724521797579","3","0.2633622","0.05267244","9.519346","sit up","1"
"18724541773791","3","0.25139117","0.06464344","9.440337","sit up","1"
"18724561715809","3","0.2633622","0.033518825","9.488221","sit up","1"
"18724581721301","3","0.24899697","0.050278235","9.495404","sit up","1"
"18724601662386","3","0.22505496","0.055066638","9.464279","sit up","1"
"18724621658579","3","0.2753332","0.05267244","9.49301","sit up","1"
"18724641596789","3","0.2633622","0.07182605","9.476251","sit up","1"
"18724661504771","3","0.24660277","0.08619126","9.500193","sit up","1"
"18724681455155","3","0.29209262","0.062249243","9.490616","sit up","1"
"18724701502795","3","0.2681506","0.050278235","9.478644","sit up","1"
"18724721461291","3","0.2633622","0.050278235","9.481039","sit up","1"
"18724741419787","3","0.2753332","0.059855044","9.495404","sit up","1"
"18724761318886","3","0.2705448","0.05267244","9.481039","sit up","1"
"18724781304501","3","0.2681506","0.047884032","9.464279","sit up","1"
"18724801230194","3","0.2681506","0.062249243","9.473856","sit up","1"
"18724821241501","3","0.25139117","0.055066638","9.466674","sit up","1"
"18724841152155","3","0.25378537","0.05267244","9.476251","sit up","1"
"18724861170764","3","0.2705448","0.04070143","9.488221","sit up","1"
"18724881110386","3","0.260968","0.06464344","9.473856","sit up","1"
"18724901087756","3","0.2681506","0.04309563","9.44752","sit up","1"
"18724921008963","3","0.23463176","0.009576807","9.454702","sit up","1"
"18724941035266","3","0.22984336","0.07182605","9.603143","sit up","1"
"18724960884155","3","0.20829555","0.009576807","9.588778","sit up","1"
"18724980857617","3","0.2896984","0.22266077","9.255983","sit up","1"
"18725000844463","3","0.32800564","0.009576807","9.25359","sit up","1"
"18725020780001","3","0.2681506","0.076614454","9.591172","sit up","1"
"18725040797229","3","0.30406362","0.04309563","9.52174","sit up","1"
"18725060664501","3","0.2753332","0.055066638","9.404425","sit up","1"
"18725080626309","3","0.23223756","-0.12689269","9.655815","sit up","1"
