"Timestamp","Accuracy","Acceleration X","Acceleration Y","Acceleration Z","Label","Cycle"
"19149829545915","3","0.23463176","-0.18195933","9.313444","none","0"
"19149849565446","3","0.34476504","-0.055066638","9.873688","none","0"
"19149869554460","3","0.25378537","0.02873042","9.172187","none","0"
"19149889543474","3","0.2681506","0.01436521","9.445126","none","0"
"19149909532487","3","0.28491","0.0023942017","9.619903","none","0"
"19149929521501","3","0.25139117","-0.0023942017","9.471462","none","0"
"19149949510515","3","0.2753332","0.01436521","9.49301","none","0"
"19149969499528","3","0.2777274","0.011971008","9.495404","none","0"
"19149989519060","3","0.2633622","0.01436521","9.459491","none","0"
"19150009508073","3","0.2777274","0.0023942017","9.502586","none","0"
"19150029497087","3","0.2753332","-0.0047884034","9.504981","none","0"
"19150049516618","3","0.2801216","-0.0023942017","9.471462","none","0"
"19150069505632","3","0.2705448","0.0","9.488221","none","0"
"19150089494646","3","0.272939","0.0","9.500193","none","0"
"19150109483659","3","0.2825158","0.009576807","9.490616","none","0"
"19150129472673","3","0.2777274","0.0023942017","9.500193","none","0"
"19150149492204","3","0.2681506","0.011971008","9.485827","none","0"
"19150169481218","3","0.2753332","0.011971008","9.485827","none","0"
"19150189470231","3","0.28491","0.007182605","9.490616","none","0"
"19150209489763","3","0.2801216","0.0023942017","9.495404","none","0"
"19150229478776","3","0.260968","0.011971008","9.49301","none","0"
"19150249467790","3","0.272939","0.007182605","9.495404","none","0"
"19150269456804","3","0.2705448","0.0023942017","9.490616","none","0"
"19150289445817","3","0.2801216","0.007182605","9.488221","none","0"
"19150309434831","3","0.272939","0.009576807","9.490616","none","0"
"19150329423845","3","0.272939","0.0023942017","9.488221","none","0"
"19150349382341","3","0.2705448","0.0047884034","9.495404","none","0"
"19150369401872","3","0.2657564","0.009576807","9.483433","none","0"
"19150389390886","3","0.272939","0.0047884034","9.497798","none","0"
"19150409379899","3","0.2825158","0.007182605","9.488221","none","0"
"19150429368913","3","0.272939","0.0047884034","9.49301","none","0"
"19150449357927","3","0.2777274","0.016759412","9.488221","none","0"
"19150469346940","3","0.272939","0.0047884034","9.490616","none","0"
"19150489335954","3","0.2753332","0.007182605","9.49301","none","0"
"19150509355485","3","0.2777274","0.0","9.495404","none","0"
"19150529344499","3","0.2681506","0.016759412","9.488221","none","0"
"19150549333513","3","0.2705448","0.007182605","9.490616","none","0"
"19150569322526","3","0.272939","0.0","9.488221","none","0"
"19150589311540","3","0.272939","0.01436521","9.500193","none","0"
"19150609331071","3","0.2705448","0.009576807","9.488221","none","0"
"19150629350603","3","0.2753332","0.01436521","9.500193","none","0"
"19150649339616","3","0.2753332","0.009576807","9.500193","none","0"
"19150669359147","3","0.2753332","-0.0023942017","9.490616","none","0"
"19150689348161","3","0.2633622","0.0023942017","9.490616","none","0"
"19150709337175","3","0.2801216","0.0","9.49301","none","0"
"19150729356706","3","0.25857377","0.007182605","9.49301","none","0"
"19150749345720","3","0.2705448","0.0047884034","9.495404","none","0"
"19150769334733","3","0.2753332","0.0047884034","9.502586","none","0"
"19150789323747","3","0.2681506","0.009576807","9.488221","none","0"
"19150809343278","3","0.2777274","-0.0047884034","9.502586","none","0"
"19150829332292","3","0.272939","-0.0023942017","9.490616","none","0"
"19150849321306","3","0.2777274","0.0","9.497798","none","0"
"19150869310319","3","0.2753332","0.0047884034","9.497798","none","0"
"19150889329851","3","0.2753332","0.0023942017","9.483433","none","0"
"19150909318864","3","0.2705448","0.007182605","9.485827","none","0"
"19150929307878","3","0.2681506","0.007182605","9.495404","none","0"
"19150949327409","3","0.260968","0.0023942017","9.488221","none","0"
"19150969316423","3","0.2705448","0.01436521","9.481039","none","0"
"19150989305437","3","0.2777274","0.009576807","9.49301","none","0"
"19151009294450","3","0.2681506","0.009576807","9.485827","none","0"
"19151029313981","3","0.272939","0.007182605","9.49301","none","0"
"19151049333513","3","0.2705448","-0.0047884034","9.488221","none","0"
"19151069322526","3","0.2825158","0.01436521","9.49301","none","0"
"19151089311540","3","0.2753332","0.0047884034","9.500193","none","0"
"19151109300554","3","0.2801216","0.0023942017","9.500193","none","0"
"19151129289567","3","0.2657564","0.007182605","9.497798","none","0"
"19151149309099","3","0.272939","0.0047884034","9.490616","none","0"
"19151169298112","3","0.2705448","0.007182605","9.488221","none","0"
"19151189317644","3","0.2681506","-0.0023942017","9.504981","none","0"
"19151209337175","3","0.2705448","0.007182605","9.495404","none","0"
"19151229295671","3","0.272939","0.0047884034","9.495404","none","0"
"19151249315202","3","0.2705448","-0.0047884034","9.497798","none","0"
"19151269304216","3","0.2681506","0.0047884034","9.488221","none","0"
"19151289293229","3","0.2753332","0.0","9.488221","none","0"
"19151309282243","3","0.2753332","0.0047884034","9.500193","none","0"
"19151329301774","3","0.2681506","0.0023942017","9.49301","none","0"
"19151349290788","3","0.2705448","0.007182605","9.488221","none","0"
"19151369279802","3","0.2705448","-0.0023942017","9.497798","none","0"
"19151389299333","3","0.2801216","0.0023942017","9.49301","none","0"
"19151409288347","3","0.272939","0.009576807","9.488221","none","0"
"19151429277360","3","0.2633622","0.007182605","9.49301","none","0"
"19151449266374","3","0.2657564","0.009576807","9.497798","none","0"
"19151469255388","3","0.2657564","0.0047884034","9.49301","none","0"
"19151489244401","3","0.2753332","0.009576807","9.488221","none","0"
"19151509233415","3","0.2777274","0.007182605","9.49301","none","0"
"19151529222429","3","0.2705448","0.0023942017","9.497798","none","0"
"19151549211442","3","0.2753332","0.007182605","9.49301","none","0"
"19151569200456","3","0.2657564","0.0023942017","9.483433","none","0"
"19151589189470","3","0.2753332","0.0023942017","9.495404","none","0"
"19151609178483","3","0.2681506","0.01436521","9.495404","none","0"
"19151629167497","3","0.2753332","0.007182605","9.49301","none","0"
"19151649187028","3","0.2753332","0.0023942017","9.495404","none","0"
"19151669176042","3","0.2825158","0.01436521","9.497798","none","0"
"19151689165056","3","0.2705448","0.0047884034","9.495404","none","0"
"19151709154069","3","0.2753332","0.011971008","9.495404","none","0"
"19151729143083","3","0.28491","0.0023942017","9.495404","none","0"
"19151749162614","3","0.2681506","0.0023942017","9.490616","none","0"
"19151769151628","3","0.2753332","-0.0023942017","9.495404","none","0"
"19151789171159","3","0.2657564","0.0023942017","9.504981","none","0"
"19151809160173","3","0.2753332","0.0023942017","9.495404","none","0"
"19151829149187","3","0.2705448","0.007182605","9.49301","none","0"
"19151849168718","3","0.2825158","0.0","9.490616","none","0"
"19151869157731","3","0.2825158","0.011971008","9.488221","none","0"
"19151889146745","3","0.2681506","0.0047884034","9.495404","none","0"
"19151909135759","3","0.2777274","0.007182605","9.495404","none","0"
"19151929155290","3","0.272939","0.007182605","9.49301","none","0"
"19151949144304","3","0.2705448","0.007182605","9.490616","none","0"
"19151969133317","3","0.2657564","-0.0023942017","9.485827","none","0"
"19151989152849","3","0.25857377","0.009576807","9.478644","none","0"
"19152009172380","3","0.2657564","0.009576807","9.49301","none","0"
"19152029161394","3","0.2753332","0.0","9.497798","none","0"
"19152049180925","3","0.2681506","0.009576807","9.49301","none","0"
"19152069200456","3","0.2753332","0.0023942017","9.488221","none","0"
"19152089189470","3","0.2801216","0.0047884034","9.495404","none","0"
"19152109178483","3","0.2705448","-0.0023942017","9.488221","none","0"
"19152129167497","3","0.272939","0.01436521","9.485827","none","0"
"19152149187028","3","0.2801216","0.0023942017","9.495404","none","0"
"19152169206560","3","0.2705448","0.0047884034","9.495404","none","0"
"19152189195573","3","0.2705448","0.0047884034","9.49301","none","0"
"19152209184587","3","0.2753332","0.0","9.490616","none","0"
"19152229173601","3","0.2705448","0.0","9.490616","none","0"
"19152249162614","3","0.2681506","0.0047884034","9.502586","none","0"
"19152269182146","3","0.2753332","0.009576807","9.481039","none","0"
"19152289171159","3","0.2681506","0.011971008","9.490616","none","0"
"19152309160173","3","0.2777274","0.007182605","9.49301","none","0"
"19152329179704","3","0.2753332","-0.0023942017","9.500193","none","0"
"19152349168718","3","0.260968","0.0047884034","9.497798","none","0"
"19152369157731","3","0.2825158","0.011971008","9.49301","none","0"
"19152389146745","3","0.2777274","0.0","9.490616","none","0"
"19152409166276","3","0.272939","0.007182605","9.490616","none","0"
"19152429155290","3","0.2705448","0.0023942017","9.497798","none","0"
"19152449174821","3","0.2777274","0.009576807","9.490616","none","0"
"19152469163835","3","0.2753332","0.0047884034","9.497798","none","0"
"19152489152849","3","0.2657564","0.0","9.497798","none","0"
"19152509141862","3","0.272939","0.0023942017","9.488221","none","0"
"19152529161394","3","0.2705448","0.011971008","9.488221","none","0"
"19152549150407","3","0.2705448","-0.0047884034","9.49301","none","0"
"19152569139421","3","0.272939","0.007182605","9.490616","none","0"
"19152589128435","3","0.2705448","-0.0023942017","9.490616","none","0"
"19152609117448","3","0.2777274","0.0047884034","9.49301","none","0"
"19152629106462","3","0.272939","0.007182605","9.49301","none","0"
"19152649095476","3","0.2681506","0.0023942017","9.49301","none","0"
"19152669084489","3","0.2777274","0.0047884034","9.49301","none","0"
"19152689073503","3","0.2681506","0.007182605","9.490616","none","0"
"19152709062517","3","0.2753332","0.009576807","9.49301","none","0"
"19152729051530","3","0.2705448","-0.0047884034","9.488221","none","0"
"19152749071062","3","0.2825158","0.009576807","9.481039","none","0"
"19152769060075","3","0.2777274","0.011971008","9.478644","none","0"
"19152789110124","3","0.2705448","0.0023942017","9.500193","none","0"
"19152809099138","3","0.2705448","0.007182605","9.502586","none","0"
"19152829118669","3","0.2777274","0.0","9.485827","none","0"
"19152849107683","3","0.2777274","-0.0047884034","9.49301","none","0"
"19152869096696","3","0.2633622","0.0","9.495404","none","0"
"19152889085710","3","0.2657564","0.009576807","9.495404","none","0"
"19152909074724","3","0.2777274","0.007182605","9.485827","none","0"
"19152929063737","3","0.2681506","0.009576807","9.483433","none","0"
"19152949052751","3","0.272939","-0.0047884034","9.481039","none","0"
"19152969041765","3","0.2705448","0.0","9.490616","none","0"
"19152989061296","3","0.2753332","-0.007182605","9.481039","none","0"
"19153009050310","3","0.2801216","0.007182605","9.483433","none","0"
"19153029039323","3","0.2825158","0.0023942017","9.485827","none","0"
"19153049058854","3","0.2753332","0.007182605","9.49301","none","0"
"19153069047868","3","0.2753332","0.0","9.488221","none","0"
"19153089036882","3","0.2705448","0.011971008","9.500193","none","0"
"19153109025896","3","0.2657564","0.007182605","9.485827","none","0"
"19153129045427","3","0.2777274","0.0047884034","9.497798","none","0"
"19153149034440","3","0.2777274","0.009576807","9.500193","none","0"
"19153169053972","3","0.272939","0.009576807","9.485827","none","0"
"19153189042985","3","0.2681506","-0.011971008","9.49301","none","0"
"19153209031999","3","0.272939","0.009576807","9.495404","none","0"
"19153229021013","3","0.2873042","-0.0047884034","9.49301","none","0"
"19153249010026","3","0.272939","0.007182605","9.497798","none","0"
"19153269029558","3","0.2777274","0.009576807","9.495404","none","0"
"19153289049089","3","0.2705448","0.009576807","9.495404","none","0"
"19153309038103","3","0.2777274","0.0047884034","9.495404","none","0"
"19153329057634","3","0.2705448","-0.0023942017","9.488221","none","0"
"19153349046647","3","0.2705448","0.009576807","9.488221","none","0"
"19153369066179","3","0.2681506","0.0","9.497798","none","0"
"19153389055192","3","0.2657564","0.007182605","9.490616","none","0"
"19153409044206","3","0.2753332","0.007182605","9.502586","none","0"
"19153429033220","3","0.28491","0.009576807","9.485827","none","0"
"19153449022233","3","0.2681506","0.0047884034","9.497798","none","0"
"19153469011247","3","0.2705448","0.0","9.495404","none","0"
"19153489000261","3","0.2681506","0.0023942017","9.49301","none","0"
"19153509019792","3","0.2777274","0.0047884034","9.49301","none","0"
"19153529008806","3","0.2681506","0.007182605","9.490616","none","0"
"19153548997819","3","0.2705448","0.007182605","9.490616","none","0"
"19153569017351","3","0.2705448","0.0047884034","9.485827","none","0"
"19153589006364","3","0.2705448","0.0023942017","9.483433","none","0"
"19153609025896","3","0.260968","0.0047884034","9.495404","none","0"
"19153629014909","3","0.2777274","0.0","9.490616","none","0"
"19153649003923","3","0.2657564","0.0023942017","9.495404","none","0"
"19153668992937","3","0.2753332","0.0023942017","9.488221","none","0"
"19153688981950","3","0.272939","0.007182605","9.488221","none","0"
"19153708970964","3","0.2753332","0.011971008","9.500193","none","0"
"19153728990495","3","0.2657564","0.009576807","9.495404","none","0"
"19153748979509","3","0.2753332","0.007182605","9.49301","none","0"
"19153768999040","3","0.2777274","0.01436521","9.488221","none","0"
"19153788988054","3","0.272939","0.011971008","9.490616","none","0"
"19153809007585","3","0.2777274","0.0","9.495404","sit down","0"
"19153828996599","3","0.2801216","0.016759412","9.488221","sit down","0"
"19153848985612","3","0.25857377","0.0","9.500193","sit down","0"
"19153868974626","3","0.272939","-0.0023942017","9.483433","sit down","0"
"19153888963640","3","0.2777274","0.0047884034","9.49301","sit down","0"
"19153908983171","3","0.2753332","0.0047884034","9.490616","sit down","0"
"19153928972185","3","0.2681506","0.0023942017","9.49301","sit down","0"
"19153948961198","3","0.272939","-0.0047884034","9.495404","sit down","0"
"19153968980729","3","0.2633622","0.0047884034","9.495404","sit down","0"
"19153988969743","3","0.2753332","0.007182605","9.490616","sit down","0"
"19154008958757","3","0.2681506","0.007182605","9.49301","sit down","0"
"19154028978288","3","0.2753332","0.011971008","9.49301","sit down","0"
"19154048997819","3","0.2777274","0.0","9.495404","sit down","0"
"19154068986833","3","0.2825158","0.009576807","9.478644","sit down","0"
"19154088975847","3","0.2753332","-0.0023942017","9.488221","sit down","0"
"19154109025896","3","0.2753332","0.0023942017","9.500193","sit down","0"
"19154129045427","3","0.2753332","0.007182605","9.500193","sit down","0"
"19154149034440","3","0.2705448","0.011971008","9.485827","sit down","0"
"19154169023454","3","0.2705448","0.0","9.476251","sit down","0"
"19154189042985","3","0.2657564","0.007182605","9.488221","sit down","0"
"19154209031999","3","0.272939","-0.007182605","9.495404","sit down","0"
"19154229021013","3","0.272939","0.0","9.495404","sit down","0"
"19154249010026","3","0.2705448","-0.0023942017","9.495404","sit down","0"
"19154269029558","3","0.2705448","0.0023942017","9.495404","sit down","0"
"19154289018571","3","0.2825158","0.0023942017","9.485827","sit down","0"
"19154309007585","3","0.2705448","0.0047884034","9.483433","sit down","0"
"19154329027116","3","0.272939","0.007182605","9.490616","sit down","0"
"19154349016130","3","0.2681506","-0.0047884034","9.490616","sit down","0"
"19154369005144","3","0.2705448","0.0047884034","9.476251","sit down","0"
"19154388994157","3","0.2753332","-0.0023942017","9.488221","sit down","0"
"19154408983171","3","0.2753332","0.01436521","9.49301","sit down","0"
"19154429002702","3","0.2753332","0.0047884034","9.481039","sit down","0"
"19154449022233","3","0.2825158","0.007182605","9.488221","sit down","0"
"19154469011247","3","0.2705448","0.0023942017","9.495404","sit down","0"
"19154489030778","3","0.272939","0.007182605","9.485827","sit down","0"
"19154509019792","3","0.2753332","0.01436521","9.495404","sit down","0"
"19154529039323","3","0.28491","-0.0047884034","9.500193","sit down","0"
"19154549028337","3","0.272939","0.0023942017","9.483433","sit down","0"
"19154569017351","3","0.272939","0.0","9.488221","sit down","0"
"19154589006364","3","0.2705448","0.0","9.497798","sit down","0"
"19154609025896","3","0.2657564","0.0","9.490616","sit down","0"
"19154629045427","3","0.2705448","-0.0023942017","9.485827","sit down","0"
"19154649034440","3","0.2753332","0.0","9.49301","sit down","0"
"19154669053972","3","0.2681506","-0.0023942017","9.488221","sit down","0"
"19154689042985","3","0.2753332","-0.0023942017","9.500193","sit down","0"
"19154709031999","3","0.2705448","0.009576807","9.490616","sit down","0"
"19154729021013","3","0.2705448","0.0023942017","9.500193","sit down","0"
"19154749010026","3","0.2825158","0.011971008","9.49301","sit down","0"
"19154768999040","3","0.2753332","-0.0023942017","9.483433","sit down","0"
"19154789018571","3","0.2825158","0.007182605","9.495404","sit down","0"
"19154809007585","3","0.272939","0.0023942017","9.495404","sit down","0"
"19154828996599","3","0.2705448","0.009576807","9.488221","sit down","0"
"19154848985612","3","0.28491","0.0023942017","9.483433","sit down","0"
"19154868974626","3","0.2753332","0.0","9.478644","sit down","0"
"19154888963640","3","0.2801216","0.007182605","9.504981","sit down","0"
"19154908952653","3","0.2753332","0.007182605","9.502586","sit down","0"
"19154928941667","3","0.272939","0.0023942017","9.464279","sit down","0"
"19154948961198","3","0.272939","0.0047884034","9.507375","sit down","0"
"19154968950212","3","0.2753332","0.007182605","9.502586","sit down","0"
"19154988969743","3","0.2753332","0.0","9.490616","sit down","0"
"19155008958757","3","0.272939","0.007182605","9.490616","sit down","0"
"19155028947771","3","0.2825158","0.0047884034","9.485827","sit down","0"
"19155048936784","3","0.2681506","0.0023942017","9.495404","sit down","0"
"19155068925798","3","0.272939","0.009576807","9.49301","sit down","0"
"19155088945329","3","0.2753332","0.0047884034","9.485827","sit down","0"
"19155108934343","3","0.2705448","0.0047884034","9.495404","sit down","0"
"19155128923356","3","0.2753332","0.0023942017","9.483433","sit down","0"
"19155148912370","3","0.2633622","0.0","9.473856","sit down","0"
"19155168931901","3","0.30166942","0.016759412","9.548077","sit down","0"
"19155188951433","3","0.29209262","-0.011971008","9.459491","sit down","0"
"19155208940446","3","0.34237084","0.01436521","9.375694","sit down","0"
"19155228959978","3","0.34955344","0.023942016","9.481039","sit down","0"
"19155248948991","3","0.2657564","-0.0023942017","9.452309","sit down","0"
"19155268968522","3","0.22505496","-0.1388637","9.174581","sit down","0"
"19155288988054","3","0.25617957","0.045489833","9.406818","sit down","0"
"19155308977067","3","0.31364042","-0.059855044","9.56723","sit down","0"
"19155328966081","3","0.30885202","-0.047884032","9.753978","sit down","0"
"19155348955095","3","0.2753332","-0.04309563","9.605537","sit down","0"
"19155368944108","3","0.30406362","0.02633622","9.600749","sit down","0"
"19155388933122","3","0.24660277","-0.04309563","9.545682","sit down","0"
"19155408952653","3","0.24181437","0.01436521","9.411607","sit down","0"
"19155428941667","3","0.2753332","-0.0047884034","9.442732","sit down","0"
"19155448961198","3","0.260968","0.0047884034","9.433155","sit down","0"
"19155468950212","3","0.2801216","-0.0023942017","9.425972","sit down","0"
"19155488969743","3","0.28491","0.0","9.485827","sit down","0"
"19155508958757","3","0.2825158","0.0023942017","9.49301","sit down","0"
"19155528947771","3","0.2801216","0.019153614","9.440337","sit down","0"
"19155548936784","3","0.29927522","0.007182605","9.528923","sit down","0"
"19155568956315","3","0.29448682","0.0023942017","9.478644","sit down","0"
"19155588945329","3","0.31603462","-0.0047884034","9.502586","sit down","0"
"19155608956078","3","0.29688102","0.0","9.516952","sit down","0"
"19155628953874","3","0.31124622","0.0","9.507375","sit down","0"
"19155648942888","3","0.30406362","-0.01436521","9.497798","sit down","0"
"19155668931901","3","0.30645782","0.0023942017","9.495404","sit down","0"
"19155688920915","3","0.29927522","0.0047884034","9.500193","sit down","0"
"19155708909929","3","0.320823","0.007182605","9.483433","sit down","0"
"19155728898942","3","0.30885202","0.0023942017","9.507375","sit down","0"
"19155748887956","3","0.30406362","0.009576807","9.514558","sit down","0"
"19155768907487","3","0.29927522","0.016759412","9.512163","sit down","0"
"19155788896501","3","0.29688102","0.0047884034","9.459491","sit down","0"
"19155808854997","3","0.31124622","0.0047884034","9.488221","sit down","0"
"19155828905046","3","0.31124622","0.007182605","9.490616","sit down","0"
"19155848894060","3","0.2896984","-0.0023942017","9.485827","sit down","0"
"19155868883073","3","0.30166942","0.0","9.504981","sit down","0"
"19155888902604","3","0.30645782","0.007182605","9.476251","sit down","0"
"19155908891618","3","0.29209262","-0.007182605","9.488221","sit down","0"
"19155928880632","3","0.30166942","0.0023942017","9.500193","sit down","0"
"19155948900163","3","0.30645782","0.007182605","9.481039","sit down","0"
"19155968889177","3","0.29927522","-0.0023942017","9.502586","sit down","0"
"19155988908708","3","0.31603462","0.007182605","9.507375","sit down","0"
"19156008928239","3","0.31364042","0.009576807","9.481039","sit down","0"
"19156028886735","3","0.320823","0.0","9.485827","sit down","0"
"19156048906267","3","0.31124622","0.0","9.49301","sit down","0"
"19156068895280","3","0.32321724","0.0023942017","9.516952","sit down","0"
"19156088884294","3","0.32321724","0.009576807","9.488221","sit down","0"
"19156108854962","3","0.30645782","0.0023942017","9.495404","sit down","0"
"19156128862321","3","0.31124622","-0.0047884034","9.490616","sit down","0"
"19156148912370","3","0.30645782","0.0047884034","9.481039","sit down","0"
"19156168901384","3","0.30645782","0.0023942017","9.469068","sit down","0"
"19156188920915","3","0.30885202","0.0","9.466674","sit down","0"
"19156208909929","3","0.30885202","-0.0023942017","9.471462","sit down","0"
"19156228929460","3","0.30406362","0.0","9.504981","sit down","0"
"19156248918474","3","0.31364042","0.0","9.49301","sit down","0"
"19156268938005","3","0.30885202","0.007182605","9.49301","sit down","0"
"19156288927019","3","0.31364042","0.0023942017","9.495404","sit down","0"
"19156308946550","3","0.31124622","0.0047884034","9.502586","sit down","0"
"19156328935563","3","0.32800564","0.0047884034","9.497798","sit down","0"
"19156348919347","3","0.30885202","-0.0023942017","9.488221","sit down","0"
"19156368913591","3","0.31124622","0.007182605","9.495404","sit down","0"
"19156388933122","3","0.31364042","-0.0023942017","9.495404","sit down","0"
"19156408922136","3","0.30406362","0.011971008","9.473856","sit down","0"
"19156428911149","3","0.30645782","0.0047884034","9.495404","sit down","0"
"19156448900163","3","0.30885202","0.0023942017","9.483433","sit down","0"
"19156468889177","3","0.30406362","0.007182605","9.481039","sit down","0"
"19156488878190","3","0.31364042","-0.0047884034","9.485827","sit down","0"
"19156508867204","3","0.31124622","0.0023942017","9.478644","sit down","0"
"19156528856218","3","0.31124622","0.0","9.49301","sit down","0"
"19156548875749","3","0.30645782","-0.0047884034","9.478644","sit down","0"
"19156568864763","3","0.30166942","0.0","9.49301","sit down","0"
"19156588853776","3","0.30885202","0.0023942017","9.497798","sit down","0"
"19156608873308","3","0.31603462","0.011971008","9.485827","sit down","0"
"19156628831804","3","0.30406362","0.0023942017","9.483433","sit down","0"
"19156648851335","3","0.31124622","0.009576807","9.49301","sit down","0"
"19156668840349","3","0.30406362","0.009576807","9.481039","sit down","0"
"19156688829362","3","0.30406362","0.007182605","9.490616","sit down","0"
"19156708818376","3","0.30406362","0.009576807","9.495404","sit down","0"
"19156728837907","3","0.30645782","0.007182605","9.481039","sit down","0"
"19156748826921","3","0.31124622","0.0047884034","9.488221","sit down","0"
"19156768846452","3","0.30406362","0.009576807","9.49301","sit down","0"
"19156788835466","3","0.31124622","0.0023942017","9.507375","sit down","0"
"19156808824479","3","0.30885202","0.009576807","9.481039","sit down","0"
"19156828813493","3","0.29927522","0.0047884034","9.481039","sit down","0"
"19156848827616","3","0.30406362","0.0023942017","9.495404","sit down","0"
"19156868822038","3","0.30885202","-0.007182605","9.495404","sit down","0"
"19156888841569","3","0.30645782","-0.0023942017","9.485827","sit down","0"
"19156908861101","3","0.30406362","0.007182605","9.495404","sit down","0"
"19156928880632","3","0.30645782","0.0","9.49301","sit down","0"
"19156948851846","3","0.30885202","0.0","9.488221","sit down","0"
"19156968858659","3","0.30166942","0.0023942017","9.497798","sit down","0"
"19156988878190","3","0.30406362","0.0023942017","9.490616","sit down","0"
"19157008836687","3","0.29927522","-0.007182605","9.476251","sit down","0"
"19157028856218","3","0.30166942","0.007182605","9.488221","sit down","0"
"19157048875749","3","0.31124622","0.0023942017","9.490616","sit down","0"
"19157068864763","3","0.30885202","0.0023942017","9.478644","sit down","0"
"19157088884294","3","0.30645782","0.0047884034","9.485827","sit down","0"
"19157108873308","3","0.29688102","0.0","9.490616","sit down","0"
"19157128892839","3","0.3184288","0.0023942017","9.483433","sit down","0"
"19157148881853","3","0.31124622","0.009576807","9.488221","sit down","0"
"19157168870866","3","0.31364042","0.0","9.500193","sit down","0"
"19157188859880","3","0.30885202","0.0047884034","9.490616","sit down","0"
"19157208848894","3","0.31603462","0.0","9.49301","sit down","0"
"19157228837907","3","0.30645782","0.011971008","9.488221","sit down","0"
"19157248857438","3","0.29927522","0.0","9.481039","sit down","0"
"19157268846452","3","0.30645782","0.0","9.488221","sit down","0"
"19157288835466","3","0.31124622","-0.0023942017","9.495404","sit down","0"
"19157308854997","3","0.30645782","-0.0023942017","9.490616","sit down","0"
"19157328844011","3","0.29688102","0.009576807","9.488221","sit down","0"
"19157348833024","3","0.29209262","-0.0023942017","9.488221","sit down","0"
"19157368852556","3","0.30406362","0.0023942017","9.488221","sit down","0"
"19157388841569","3","0.30406362","0.0","9.481039","sit down","0"
"19157408830583","3","0.30885202","0.0047884034","9.490616","sit down","0"
"19157428819597","3","0.3184288","-0.007182605","9.483433","sit down","0"
"19157448808610","3","0.31364042","0.007182605","9.483433","sit down","0"
"19157468828142","3","0.31124622","0.007182605","9.49301","sit down","0"
"19157488786638","3","0.30885202","0.009576807","9.502586","sit down","0"
"19157508806169","3","0.31124622","0.0023942017","9.495404","sit down","0"
"19157528795183","3","0.30645782","0.0023942017","9.481039","sit down","0"
"19157548784196","3","0.30166942","0.0","9.485827","sit down","0"
"19157568773210","3","0.30645782","0.009576807","9.485827","sit down","0"
"19157588762224","3","0.30645782","-0.0047884034","9.481039","sit down","0"
"19157608751237","3","0.30645782","0.009576807","9.49301","sit down","0"
"19157628770769","3","0.31124622","0.0","9.473856","sit down","0"
"19157648759782","3","0.30885202","0.0023942017","9.500193","sit down","0"
"19157668748796","3","0.3184288","0.009576807","9.485827","sit down","0"
"19157688737810","3","0.31364042","0.009576807","9.490616","sit down","0"
"19157708726823","3","0.29688102","0.01436521","9.481039","sit down","0"
"19157728746354","3","0.30885202","0.007182605","9.476251","sit down","0"
"19157748735368","3","0.30166942","-0.0047884034","9.490616","sit down","0"
"19157768754899","3","0.30406362","0.01436521","9.495404","sit down","0"
"19157788743913","3","0.30406362","0.0023942017","9.497798","sit down","0"
"19157808732927","3","0.30885202","0.01436521","9.483433","lay down","0"
"19157828721940","3","0.30885202","-0.0047884034","9.490616","lay down","0"
"19157848710954","3","0.30406362","-0.0023942017","9.497798","lay down","0"
"19157868699968","3","0.31124622","0.009576807","9.481039","lay down","0"
"19157888719499","3","0.31124622","0.007182605","9.490616","lay down","0"
"19157908706422","3","0.30406362","0.0023942017","9.473856","lay down","0"
"19157928660692","3","0.30885202","0.0023942017","9.49301","lay down","0"
"19157948686540","3","0.31364042","0.007182605","9.483433","lay down","0"
"19157968666038","3","0.30645782","-0.0047884034","9.495404","lay down","0"
"19157988664567","3","0.30885202","0.01436521","9.495404","lay down","0"
"19158008653581","3","0.29927522","0.011971008","9.485827","lay down","0"
"19158028633345","3","0.30406362","0.0023942017","9.49301","lay down","0"
"19158048662126","3","0.30406362","0.009576807","9.481039","lay down","0"
"19158068639384","3","0.31364042","0.009576807","9.490616","lay down","0"
"19158088640153","3","0.31364042","0.0047884034","9.495404","lay down","0"
"19158108659685","3","0.30406362","-0.007182605","9.490616","lay down","0"
"19158128648698","3","0.31124622","0.007182605","9.490616","lay down","0"
"19158148637712","3","0.3184288","0.01436521","9.490616","lay down","0"
"19158168615153","3","0.3184288","0.007182605","9.483433","lay down","0"
"19158188615739","3","0.29448682","0.0047884034","9.485827","lay down","0"
"19158208604753","3","0.29927522","-0.0023942017","9.52174","lay down","0"
"19158228593767","3","0.31364042","0.021547815","9.488221","lay down","0"
"19158248613298","3","0.30166942","0.0047884034","9.469068","lay down","0"
"19158268602312","3","0.30406362","0.019153614","9.488221","lay down","0"
"19158288591325","3","0.31124622","0.009576807","9.483433","lay down","0"
"19158308580339","3","0.31124622","0.007182605","9.485827","lay down","0"
"19158328599870","3","0.31124622","0.0023942017","9.502586","lay down","0"
"19158348588884","3","0.30885202","0.01436521","9.485827","lay down","0"
"19158368577897","3","0.30406362","0.009576807","9.490616","lay down","0"
"19158388597429","3","0.30645782","0.0023942017","9.500193","lay down","0"
"19158408586442","3","0.30645782","0.007182605","9.500193","lay down","0"
"19158428575456","3","0.30645782","0.011971008","9.490616","lay down","0"
"19158448564470","3","0.31364042","0.021547815","9.495404","lay down","0"
"19158468542922","3","0.30885202","0.0","9.485827","lay down","0"
"19158488538345","3","0.29927522","0.0047884034","9.504981","lay down","0"
"19158508531511","3","0.30406362","0.0047884034","9.495404","lay down","0"
"19158528520524","3","0.30406362","0.019153614","9.500193","lay down","0"
"19158548486576","3","0.29927522","0.0047884034","9.500193","lay down","0"
"19158568475845","3","0.30406362","0.009576807","9.464279","lay down","0"
"19158588518083","3","0.29209262","0.0","9.452309","lay down","0"
"19158608515883","3","0.29448682","0.0047884034","9.497798","lay down","0"
"19158628526628","3","0.31124622","0.01436521","9.473856","lay down","0"
"19158648546159","3","0.30406362","0.007182605","9.471462","lay down","0"
"19158668535173","3","0.3184288","0.007182605","9.514558","lay down","0"
"19158688524187","3","0.30645782","0.0","9.488221","lay down","0"
"19158708513200","3","0.3184288","0.016759412","9.507375","lay down","0"
"19158728502214","3","0.31603462","0.011971008","9.457097","lay down","0"
"19158748491228","3","0.2873042","0.0","9.509769","lay down","0"
"19158768476499","3","0.30406362","0.019153614","9.485827","lay down","0"
"19158788499772","3","0.30885202","0.0023942017","9.464279","lay down","0"
"19158808488786","3","0.29448682","0.0023942017","9.464279","lay down","0"
"19158828477800","3","0.30885202","-0.0023942017","9.531317","lay down","0"
"19158848466813","3","0.31364042","0.009576807","9.483433","lay down","0"
"19158868455827","3","0.29927522","0.0023942017","9.466674","lay down","0"
"19158888415883","3","0.31364042","-0.009576807","9.543288","lay down","0"
"19158908433854","3","0.30406362","-0.01436521","9.476251","lay down","0"
"19158928401037","3","0.29209262","-0.009576807","9.485827","lay down","0"
"19158948408652","3","0.2873042","0.0047884034","9.488221","lay down","0"
"19158968431413","3","0.29688102","-0.0047884034","9.516952","lay down","0"
"19158988419076","3","0.31124622","-0.0047884034","9.497798","lay down","0"
"19159008431806","3","0.29688102","0.0023942017","9.404425","lay down","0"
"19159028380306","3","0.3184288","-0.04070143","9.507375","lay down","0"
"19159048417985","3","0.30645782","-0.02633622","9.526528","lay down","0"
"19159068379960","3","0.29927522","-0.02633622","9.452309","lay down","0"
"19159088396013","3","0.2825158","-0.007182605","9.488221","lay down","0"
"19159108385026","3","0.33039984","-0.0023942017","9.56723","lay down","0"
"19159128335345","3","0.29448682","-0.038307227","9.5385","lay down","0"
"19159148344191","3","0.29448682","-0.019153614","9.500193","lay down","0"
"19159168382585","3","0.2896984","0.0023942017","9.49301","lay down","0"
"19159188346229","3","0.28491","-0.016759412","9.507375","lay down","0"
"19159208381922","3","0.29927522","0.0023942017","9.416395","lay down","0"
"19159228380144","3","0.30645782","-0.009576807","9.464279","lay down","0"
"19159248363537","3","0.30406362","-0.009576807","9.555259","lay down","0"
"19159268358171","3","0.30885202","0.0023942017","9.43076","lay down","0"
"19159288377702","3","0.31603462","-0.021547815","9.404425","lay down","0"
"19159308320883","3","0.29448682","-0.009576807","9.49301","lay down","0"
"19159328355729","3","0.32321724","0.009576807","9.56723","lay down","0"
"19159348320691","3","0.31124622","0.02873042","9.299079","lay down","0"
"19159368333757","3","0.33279404","-0.038307227","9.495404","lay down","0"
"19159388353288","3","0.34476504","-0.06943185","9.545682","lay down","0"
"19159408342302","3","0.31124622","0.019153614","9.382876","lay down","0"
"19159428309806","3","0.31364042","-0.074220255","9.696517","lay down","0"
"19159448320329","3","0.33758244","0.0","9.701305","lay down","0"
"19159468277883","3","0.28491","0.033518825","9.56723","lay down","0"
"19159488298356","3","0.32800564","-0.05267244","9.425972","lay down","0"
"19159508241037","3","0.29448682","0.01436521","9.332599","lay down","0"
"19159528269421","3","0.2896984","-0.019153614","9.514558","lay down","0"
"19159548269344","3","0.260968","-0.023942016","9.40203","lay down","0"
"19159568246152","3","0.2801216","-0.0047884034","9.411607","lay down","0"
"19159588296152","3","0.3184288","-0.02633622","9.490616","lay down","0"
"19159608271921","3","0.2896984","-0.02633622","9.504981","lay down","0"
"19159628282487","3","0.29688102","-0.016759412","9.466674","lay down","0"
"19159648282460","3","0.272939","-0.050278235","9.516952","lay down","0"
"19159668291032","3","0.31364042","-0.02633622","9.497798","lay down","0"
"19159688209113","3","0.2873042","-0.016759412","9.531317","lay down","0"
"19159708204152","3","0.3184288","-0.038307227","9.440337","lay down","0"
"19159728247152","3","0.2657564","-0.038307227","9.478644","lay down","0"
"19159748271806","3","0.30406362","-0.031124622","9.526528","lay down","0"
"19159768297136","3","0.2825158","-0.0023942017","9.459491","lay down","0"
"19159788235613","3","0.2896984","-0.033518825","9.485827","lay down","0"
"19159808275163","3","0.30885202","-0.021547815","9.516952","lay down","0"
"19159828238383","3","0.29927522","-0.02633622","9.497798","lay down","0"
"19159848241652","3","0.2777274","-0.062249243","9.576807","lay down","0"
"19159868210806","3","0.35194764","-0.019153614","9.406818","lay down","0"
"19159888261735","3","0.272939","-0.09816227","9.516952","lay down","0"
"19159908277344","3","0.37349546","0.11971009","9.052477","lay down","0"
"19159928300798","3","0.20350714","0.05267244","9.744401","lay down","0"
"19159948272306","3","0.4405331","-0.093373865","9.61272","lay down","0"
"19159968278825","3","0.34955344","-0.05267244","9.3661175","lay down","0"
"19159988267839","3","0.320823","-0.04070143","9.44752","lay down","0"
"19160008194767","3","0.30645782","-0.06703765","9.636662","lay down","0"
"19160028212306","3","0.28491","-0.02633622","9.3733","lay down","0"
"19160048179844","3","0.29927522","-0.038307227","9.44752","lay down","0"
"19160068167267","3","0.2873042","-0.04309563","9.55047","lay down","0"
"19160088183421","3","0.30645782","-0.033518825","9.44752","lay down","0"
"19160108209113","3","0.2801216","-0.045489833","9.442732","lay down","0"
"19160128251970","3","0.28491","-0.047884032","9.504981","lay down","0"
"19160148271501","3","0.31364042","-0.047884032","9.562442","lay down","0"
"19160168272767","3","0.31364042","-0.059855044","9.507375","lay down","0"
"19160188280046","3","0.30645782","-0.05267244","9.469068","lay down","0"
"19160208269060","3","0.32321724","-0.007182605","9.464279","lay down","0"
"19160228258073","3","0.2873042","-0.0047884034","9.464279","lay down","0"
"19160248183267","3","0.3184288","-0.016759412","9.469068","lay down","0"
"19160268236101","3","0.32800564","-0.06464344","9.677363","lay down","0"
"19160288255632","3","0.34476504","-0.035913024","9.217676","lay down","0"
"19160308228113","3","0.33279404","0.0","9.44752","lay down","0"
"19160328240805","3","0.34237084","-0.047884032","9.679757","lay down","0"
"19160348283708","3","0.30645782","0.047884032","9.528923","lay down","0"
"19160368242267","3","0.33997664","-0.035913024","9.519346","lay down","0"
"19160388292253","3","0.30645782","-0.055066638","9.536105","lay down","0"
"19160408217690","3","0.2873042","-0.016759412","9.481039","lay down","0"
"19160428270280","3","0.28491","-0.035913024","9.442732","lay down","0"
"19160448259294","3","0.2681506","-0.021547815","9.442732","lay down","0"
"19160468248308","3","0.2777274","-0.038307227","9.466674","lay down","0"
"19160488237321","3","0.2825158","-0.021547815","9.433155","lay down","0"
"19160508226335","3","0.31364042","-0.038307227","9.504981","lay down","0"
"19160528215349","3","0.33279404","-0.031124622","9.502586","lay down","0"
"19160548204362","3","0.36152446","-0.0023942017","9.543288","lay down","0"
"19160568163882","3","0.31603462","0.0","9.514558","lay down","0"
"19160588212907","3","0.29209262","0.023942016","9.598354","lay down","0"
"19160608201921","3","0.34476504","0.0023942017","9.380483","lay down","0"
"19160628221452","3","0.31124622","-0.023942016","9.437943","lay down","0"
"19160648192344","3","0.2825158","-0.04070143","9.579201","lay down","0"
"19160668229997","3","0.35673606","0.009576807","9.56723","lay down","0"
"19160688219011","3","0.31364042","0.023942016","9.478644","lay down","0"
"19160708158497","3","0.29688102","-0.019153614","9.516952","lay down","0"
"19160728194305","3","0.31364042","-0.0047884034","9.485827","lay down","0"
"19160748186052","3","0.2825158","-0.011971008","9.452309","lay down","0"
"19160768205583","3","0.30645782","-0.019153614","9.464279","lay down","0"
"19160788203728","3","0.32321724","-0.016759412","9.466674","lay down","0"
"19160808226151","3","0.32561144","-0.011971008","9.473856","lay down","0"
"19160828233659","3","0.320823","-0.01436521","9.471462","lay down","0"
"19160848195228","3","0.33518824","-0.011971008","9.481039","lay down","0"
"19160868200459","3","0.32321724","-0.011971008","9.509769","lay down","0"
"19160888261735","3","0.320823","-0.011971008","9.509769","lay down","0"
"19160908281267","3","0.33279404","-0.007182605","9.507375","lay down","0"
"19160928300798","3","0.320823","-0.0023942017","9.49301","lay down","0"
"19160948320329","3","0.30645782","0.0","9.464279","lay down","0"
"19160968258113","3","0.30645782","-0.011971008","9.461885","lay down","0"
"19160988281036","3","0.30645782","-0.0047884034","9.473856","lay down","0"
"19161008317888","3","0.30885202","-0.016759412","9.476251","lay down","0"
"19161028336228","3","0.31364042","-0.011971008","9.478644","lay down","0"
"19161048326433","3","0.30885202","-0.009576807","9.490616","lay down","0"
"19161068345964","3","0.31603462","-0.011971008","9.490616","lay down","0"
"19161088327805","3","0.31603462","-0.011971008","9.500193","lay down","0"
"19161108354509","3","0.32321724","-0.019153614","9.49301","lay down","0"
"19161128312997","3","0.320823","-0.0047884034","9.485827","lay down","0"
"19161148261689","3","0.31603462","-0.0047884034","9.488221","lay down","0"
"19161168305305","3","0.3184288","0.0","9.478644","lay down","0"
"19161188259920","3","0.31124622","-0.0047884034","9.481039","lay down","0"
"19161208269060","3","0.31603462","0.0","9.485827","lay down","0"
"19161228260535","3","0.3184288","0.0","9.481039","lay down","0"
"19161248277604","3","0.32561144","-0.009576807","9.500193","lay down","0"
"19161268266618","3","0.3184288","-0.0047884034","9.49301","lay down","0"
"19161288286149","3","0.320823","-0.011971008","9.478644","lay down","0"
"19161308201920","3","0.320823","-0.0047884034","9.488221","lay down","0"
"19161328264177","3","0.31603462","-0.011971008","9.495404","lay down","0"
"19161348270766","3","0.31364042","-0.007182605","9.488221","lay down","0"
"19161368272722","3","0.30166942","0.0047884034","9.488221","lay down","0"
"19161388292253","3","0.3184288","-0.009576807","9.488221","lay down","0"
"19161408282381","3","0.320823","-0.011971008","9.488221","lay down","0"
"19161428285843","3","0.3184288","-0.009576807","9.478644","lay down","0"
"19161448320329","3","0.31603462","-0.0047884034","9.481039","lay down","0"
"19161468309343","3","0.32321724","-0.009576807","9.488221","lay down","0"
"19161488298356","3","0.31364042","0.0","9.495404","lay down","0"
"19161508287370","3","0.31124622","-0.011971008","9.490616","lay down","0"
"19161528286612","3","0.320823","0.0","9.490616","lay down","0"
"19161548295915","3","0.31124622","-0.0047884034","9.49301","lay down","0"
"19161568315446","3","0.30885202","-0.0023942017","9.49301","lay down","0"
"19161588283074","3","0.320823","-0.0023942017","9.485827","lay down","0"
"19161608293474","3","0.32800564","-0.0023942017","9.488221","lay down","0"
"19161628282487","3","0.3184288","-0.007182605","9.483433","lay down","0"
"19161648243727","3","0.31364042","-0.016759412","9.490616","lay down","0"
"19161668253151","3","0.32561144","-0.0047884034","9.483433","lay down","0"
"19161688341081","3","0.320823","-0.0023942017","9.473856","lay down","0"
"19161708330095","3","0.31603462","-0.007182605","9.483433","lay down","0"
"19161728319108","3","0.320823","-0.011971008","9.481039","lay down","0"
"19161748277604","3","0.320823","0.0","9.483433","lay down","0"
"19161768297136","3","0.31603462","-0.009576807","9.488221","lay down","0"
"19161788269035","3","0.32561144","-0.007182605","9.500193","lay down","0"
"19161808330497","3","0.32800564","-0.009576807","9.485827","sit up","0"
"19161828355729","3","0.31124622","-0.009576807","9.478644","sit up","0"
"19161848344743","3","0.320823","-0.009576807","9.483433","sit up","0"
"19161868364274","3","0.31603462","-0.011971008","9.473856","sit up","0"
"19161888341573","3","0.3184288","-0.0047884034","9.481039","sit up","0"
"19161908342302","3","0.31603462","-0.0047884034","9.49301","sit up","0"
"19161928279381","3","0.3184288","-0.0023942017","9.490616","sit up","0"
"19161948381364","3","0.31603462","-0.0023942017","9.488221","sit up","0"
"19161968370378","3","0.31603462","-0.009576807","9.488221","sit up","0"
"19161988359392","3","0.31603462","-0.007182605","9.485827","sit up","0"
"19162008280227","3","0.31364042","-0.011971008","9.483433","sit up","0"
"19162028337419","3","0.31603462","-0.009576807","9.488221","sit up","0"
"19162048311035","3","0.31364042","-0.0047884034","9.473856","sit up","0"
"19162068345964","3","0.3184288","-0.0047884034","9.49301","sit up","0"
"19162088365495","3","0.320823","0.0","9.490616","sit up","0"
"19162108354509","3","0.32321724","-0.019153614","9.49301","sit up","0"
"19162128343522","3","0.31603462","-0.007182605","9.476251","sit up","0"
"19162148262535","3","0.31603462","-0.007182605","9.488221","sit up","0"
"19162168294650","3","0.3184288","0.0023942017","9.483433","sit up","0"
"19162188341081","3","0.31364042","-0.0047884034","9.452309","sit up","0"
"19162208292419","3","0.33279404","-0.009576807","9.466674","sit up","0"
"19162228319108","3","0.34237084","-0.02633622","9.524135","sit up","0"
"19162248308122","3","0.33518824","-0.038307227","9.536105","sit up","0"
"19162268210035","3","0.29927522","-0.02633622","9.52174","sit up","0"
"19162288180496","3","0.32561144","0.007182605","9.466674","sit up","0"
"19162308275163","3","0.32800564","0.011971008","9.414001","sit up","0"
"19162328192150","3","0.30645782","0.0","9.507375","sit up","0"
"19162348159689","3","0.3184288","-0.035913024","9.500193","sit up","0"
"19162368204535","3","0.29688102","-0.045489833","9.49301","sit up","0"
"19162388141958","3","0.31364042","-0.021547815","9.533711","sit up","0"
"19162408148842","3","0.30885202","0.0047884034","9.483433","sit up","0"
"19162428239763","3","0.3184288","0.007182605","9.423578","sit up","0"
"19162448228776","3","0.34237084","-0.009576807","9.461885","sit up","0"
"19162468122535","3","0.31603462","-0.023942016","9.514558","sit up","0"
"19162488133765","3","0.320823","-0.019153614","9.528923","sit up","0"
"19162508226335","3","0.320823","-0.007182605","9.481039","sit up","0"
"19162528245866","3","0.29927522","-0.019153614","9.509769","sit up","0"
"19162548155496","3","0.30406362","-0.019153614","9.509769","sit up","0"
"19162568254411","3","0.30885202","-0.02633622","9.490616","sit up","0"
"19162588190996","3","0.29448682","-0.023942016","9.471462","sit up","0"
"19162608252611","3","0.29927522","-0.009576807","9.459491","sit up","0"
"19162628168534","3","0.31364042","0.0023942017","9.466674","sit up","0"
"19162648146727","3","0.29209262","-0.0047884034","9.488221","sit up","0"
"19162668163804","3","0.30645782","-0.009576807","9.44752","sit up","0"
"19162688219011","3","0.32321724","-0.0023942017","9.516952","sit up","0"
"19162708208024","3","0.33279404","-0.023942016","9.495404","sit up","0"
"19162728227556","3","0.3184288","-0.021547815","9.495404","sit up","0"
"19162748159765","3","0.30885202","-0.045489833","9.500193","sit up","0"
"19162768205583","3","0.33758244","-0.047884032","9.421184","sit up","0"
"19162788194597","3","0.25617957","-0.074220255","9.461885","sit up","0"
"19162808105688","3","0.33039984","-0.019153614","9.483433","sit up","0"
"19162828172624","3","0.31364042","-0.033518825","9.421184","sit up","0"
"19162848161638","3","0.2633622","-0.050278235","9.502586","sit up","0"
"19162868108265","3","0.32321724","-0.021547815","9.495404","sit up","0"
"19162888168842","3","0.2873042","-0.016759412","9.464279","sit up","0"
"19162908250749","3","0.29927522","-0.019153614","9.497798","sit up","0"
"19162928187303","3","0.33279404","-0.04070143","9.512163","sit up","0"
"19162948166880","3","0.272939","-0.1364695","9.572019","sit up","0"
"19162968278825","3","0.34715924","0.016759412","9.483433","sit up","0"
"19162988267839","3","0.34237084","-0.055066638","9.528923","sit up","0"
"19163008229842","3","0.2753332","-0.023942016","9.464279","sit up","0"
"19163028152726","3","0.30406362","-0.019153614","9.519346","sit up","0"
"19163048195880","3","0.2896984","-0.033518825","9.490616","sit up","0"
"19163068166226","3","0.2777274","-0.009576807","9.416395","sit up","0"
"19163088183880","3","0.31364042","-0.04070143","9.495404","sit up","0"
"19163108170880","3","0.28491","-0.033518825","9.49301","sit up","0"
"19163128282487","3","0.2777274","-0.02633622","9.473856","sit up","0"
"19163148209303","3","0.31603462","-0.035913024","9.471462","sit up","0"
"19163168260515","3","0.30885202","-0.02633622","9.500193","sit up","0"
"19163188162380","3","0.29688102","-0.045489833","9.497798","sit up","0"
"19163208238542","3","0.30406362","-0.016759412","9.464279","sit up","0"
"19163228153611","3","0.31364042","-0.019153614","9.488221","sit up","0"
"19163248216569","3","0.29209262","-0.02873042","9.421184","sit up","0"
"19163268205583","3","0.29688102","-0.01436521","9.502586","sit up","0"
"19163288194597","3","0.28491","-0.019153614","9.459491","sit up","0"
"19163308183610","3","0.2801216","-0.01436521","9.478644","sit up","0"
"19163328098457","3","0.28491","-0.011971008","9.385271","sit up","0"
"19163348079842","3","0.2825158","-0.011971008","9.370906","sit up","0"
"19163368067726","3","0.2825158","-0.031124622","9.44752","sit up","0"
"19163388170183","3","0.33518824","-0.04309563","9.459491","sit up","0"
"19163408159196","3","0.39504328","-0.04309563","9.421184","sit up","0"
"19163428148210","3","0.32561144","-0.110133275","9.636662","sit up","0"
"19163448137224","3","0.36152446","-0.031124622","9.591172","sit up","0"
"19163468156755","3","0.29927522","-0.033518825","9.667787","sit up","0"
"19163488145769","3","0.31364042","-0.059855044","9.507375","sit up","0"
"19163508165300","3","0.32321724","0.011971008","9.457097","sit up","0"
"19163528154313","3","0.260968","-0.05267244","9.481039","sit up","0"
"19163548173845","3","0.3184288","-0.0047884034","9.421184","sit up","0"
"19163568162858","3","0.2753332","-0.04070143","9.564836","sit up","0"
"19163588024303","3","0.30166942","0.011971008","9.411607","sit up","0"
"19163608140886","3","0.2873042","-0.016759412","9.478644","sit up","0"
"19163628041534","3","0.29927522","0.011971008","9.452309","sit up","0"
"19163648078918","3","0.28491","0.023942016","9.564836","sit up","0"
"19163667996264","3","0.31603462","-0.023942016","9.361329","sit up","0"
"19163687976149","3","0.36870706","-0.038307227","9.548077","sit up","0"
"19163708085954","3","0.35194764","-0.011971008","9.583989","sit up","0"
"19163728105485","3","0.36152446","-0.016759412","9.497798","sit up","0"
"19163748056803","3","0.33518824","-0.02873042","9.512163","sit up","0"
"19163768065803","3","0.33039984","-0.019153614","9.44752","sit up","0"
"19163788103044","3","0.29688102","-0.021547815","9.502586","sit up","0"
"19163808092058","3","0.3184288","-0.016759412","9.461885","sit up","0"
"19163828081071","3","0.31603462","0.0","9.442732","sit up","0"
"19163848070085","3","0.30166942","-0.021547815","9.452309","sit up","0"
"19163868059099","3","0.30885202","-0.0047884034","9.469068","sit up","0"
"19163888048112","3","0.320823","-0.009576807","9.485827","sit up","0"
"19163908044803","3","0.30166942","-0.009576807","9.452309","sit up","0"
"19163928056657","3","0.31603462","-0.01436521","9.454702","sit up","0"
"19163948017534","3","0.320823","-0.04309563","9.509769","sit up","0"
"19163968034685","3","0.320823","-0.021547815","9.459491","sit up","0"
"19163987926187","3","0.2633622","-0.079008654","9.598354","sit up","0"
"19164008012712","3","0.31364042","-0.011971008","9.390059","sit up","0"
"19164028032243","3","0.34237084","0.0023942017","9.516952","sit up","0"
"19164047898226","3","0.2825158","-0.01436521","9.579201","sit up","0"
"19164068040788","3","0.34476504","0.009576807","9.466674","sit up","0"
"19164088060319","3","0.33997664","-0.01436521","9.488221","sit up","0"
"19164107956956","3","0.30406362","-0.009576807","9.528923","sit up","0"
"19164128028072","3","0.32321724","0.01436521","9.425972","sit up","0"
"19164148057878","3","0.31124622","-0.02633622","9.464279","sit up","0"
"19164168046892","3","0.2896984","0.045489833","9.464279","sit up","0"
"19164187923341","3","0.35434186","-0.04309563","9.514558","sit up","0"
"19164207909764","3","0.22026655","-0.007182605","9.397242","sit up","0"
"19164228044450","3","0.38067806","0.0","9.52174","sit up","0"
"19164247980264","3","0.29688102","-0.023942016","9.55047","sit up","0"
"19164267955649","3","0.33997664","0.031124622","9.445126","sit up","0"
"19164287978264","3","0.33279404","-0.02633622","9.481039","sit up","0"
"19164308000505","3","0.2753332","-0.0023942017","9.536105","sit up","0"
"19164328020036","3","0.32800564","-0.011971008","9.471462","sit up","0"
"19164347915264","3","0.31603462","0.0023942017","9.495404","sit up","0"
"19164367873302","3","0.31124622","0.0023942017","9.454702","sit up","0"
"19164387987077","3","0.30645782","-0.0023942017","9.464279","sit up","0"
"19164407976091","3","0.30406362","0.0","9.485827","sit up","0"
"19164427965104","3","0.2896984","-0.01436521","9.478644","sit up","0"
"19164447939995","3","0.31364042","-0.009576807","9.504981","sit up","0"
"19164467943132","3","0.320823","0.0","9.476251","sit up","0"
"19164487830379","3","0.32800564","0.0047884034","9.49301","sit up","0"
"19164507860764","3","0.32321724","0.007182605","9.490616","sit up","0"
"19164527822648","3","0.31603462","0.011971008","9.49301","sit up","0"
"19164547819302","3","0.3184288","-0.0023942017","9.469068","sit up","0"
"19164567949235","3","0.30645782","-0.0023942017","9.504981","sit up","0"
"19164587904341","3","0.30166942","0.007182605","9.49301","sit up","0"
"19164607889648","3","0.29927522","0.01436521","9.473856","sit up","0"
"19164627911802","3","0.30406362","-0.0047884034","9.488221","sit up","0"
"19164647905290","3","0.31364042","0.0023942017","9.495404","sit up","0"
"19164667924821","3","0.30166942","0.0","9.461885","sit up","0"
"19164687913835","3","0.3184288","0.007182605","9.485827","sit up","0"
"19164707902849","3","0.29927522","-0.0047884034","9.485827","sit up","0"
"19164727842456","3","0.30406362","0.01436521","9.490616","sit up","0"
"19164747841341","3","0.29209262","0.009576807","9.485827","sit up","0"
"19164767900407","3","0.31364042","0.019153614","9.481039","sit up","0"
"19164787889421","3","0.30166942","0.011971008","9.49301","sit up","0"
"19164807878435","3","0.30406362","0.009576807","9.500193","sit up","0"
"19164827776456","3","0.31603462","0.0047884034","9.469068","sit up","0"
"19164847886979","3","0.31364042","0.009576807","9.488221","sit up","0"
"19164867906511","3","0.29927522","0.01436521","9.481039","sit up","0"
"19164887877379","3","0.31364042","0.0047884034","9.466674","sit up","0"
"19164907884538","3","0.30406362","0.0047884034","9.49301","sit up","0"
"19164927844187","3","0.30645782","0.0","9.500193","sit up","0"
"19164947862565","3","0.29688102","0.019153614","9.495404","sit up","0"
"19164967851579","3","0.29927522","0.011971008","9.485827","sit up","0"
"19164987737725","3","0.29688102","0.009576807","9.49301","sit up","0"
"19165007743610","3","0.30645782","0.01436521","9.485827","sit up","0"
"19165027776148","3","0.29448682","0.016759412","9.485827","sit up","0"
"19165047771533","3","0.29448682","0.01436521","9.495404","sit up","0"
"19165067778494","3","0.31124622","0.019153614","9.502586","sit up","0"
"19165087877214","3","0.29688102","0.016759412","9.49301","sit up","0"
"19165107863879","3","0.29927522","0.016759412","9.495404","sit up","0"
"19165127751110","3","0.30406362","0.01436521","9.49301","sit up","0"
"19165147905290","3","0.30885202","0.011971008","9.502586","sit up","0"
"19165167894304","3","0.31364042","0.011971008","9.483433","sit up","0"
"19165187818071","3","0.30406362","0.016759412","9.49301","sit up","0"
"19165207902849","3","0.30645782","0.01436521","9.488221","sit up","0"
"19165227780340","3","0.30645782","0.01436521","9.471462","sit up","0"
"19165247880876","3","0.31364042","0.023942016","9.490616","sit up","0"
"19165267869890","3","0.30645782","0.016759412","9.490616","sit up","0"
"19165287780302","3","0.30645782","0.01436521","9.488221","sit up","0"
"19165307822533","3","0.30645782","0.007182605","9.49301","sit up","0"
"19165327721840","3","0.3184288","0.009576807","9.485827","sit up","0"
"19165347825944","3","0.3184288","0.011971008","9.485827","sit up","0"
"19165367814958","3","0.31364042","0.016759412","9.481039","sit up","0"
"19165387803972","3","0.30406362","0.0023942017","9.490616","sit up","0"
"19165407792985","3","0.31124622","0.0023942017","9.483433","sit up","0"
"19165427843034","3","0.30406362","0.007182605","9.495404","sit up","0"
"19165447832048","3","0.32561144","0.009576807","9.490616","sit up","0"
"19165467725494","3","0.30645782","0.007182605","9.478644","sit up","0"
"19165487840593","3","0.31124622","0.016759412","9.488221","sit up","0"
"19165507829606","3","0.3184288","0.0023942017","9.502586","sit up","0"
"19165527806109","3","0.29927522","0.009576807","9.488221","sit up","0"
"19165547744417","3","0.30406362","0.011971008","9.495404","sit up","0"
"19165567827165","3","0.31364042","0.01436521","9.490616","sit up","0"
"19165587816179","3","0.30885202","0.007182605","9.490616","sit up","0"
"19165607805192","3","0.30885202","0.0023942017","9.488221","sit up","0"
"19165627794206","3","0.30885202","0.0047884034","9.490616","sit up","0"
"19165647783220","3","0.30645782","0.0023942017","9.483433","sit up","0"
"19165667772233","3","0.30645782","0.009576807","9.490616","sit up","0"
"19165687791765","3","0.31124622","0.0047884034","9.49301","sit up","0"
"19165707735686","3","0.31124622","0.019153614","9.481039","sit up","0"
"19165727769792","3","0.31603462","0.016759412","9.485827","sit up","0"
"19165747614686","3","0.31124622","0.007182605","9.488221","sit up","0"
"19165767663917","3","0.30406362","0.0023942017","9.490616","sit up","0"
"19165787767351","3","0.31124622","0.009576807","9.483433","sit up","0"
"19165807756364","3","0.31364042","0.007182605","9.481039","stand up","0"
"19165827626763","3","0.31364042","0.011971008","9.49301","stand up","0"
"19165847709417","3","0.31124622","0.009576807","9.485827","stand up","0"
"19165867611071","3","0.320823","0.009576807","9.488221","stand up","0"
"19165887712419","3","0.31603462","0.009576807","9.502586","stand up","0"
"19165907624301","3","0.31364042","0.009576807","9.500193","stand up","0"
"19165927590955","3","0.31603462","0.007182605","9.497798","stand up","0"
"19165947567647","3","0.31364042","0.01436521","9.488221","stand up","0"
"19165967561109","3","0.31364042","0.007182605","9.483433","stand up","0"
"19165987688005","3","0.31364042","0.0047884034","9.483433","stand up","0"
"19166007677019","3","0.29927522","0.007182605","9.488221","stand up","0"
"19166027655186","3","0.30885202","0.009576807","9.473856","stand up","0"
"19166047643186","3","0.31603462","0.007182605","9.469068","stand up","0"
"19166067523147","3","0.3184288","0.011971008","9.495404","stand up","0"
"19166087663591","3","0.33039984","0.016759412","9.507375","stand up","0"
"19166107651609","3","0.33039984","0.011971008","9.509769","stand up","0"
"19166127662263","3","0.31364042","0.0047884034","9.490616","stand up","0"
"19166147691667","3","0.320823","0.0023942017","9.488221","stand up","0"
"19166167663417","3","0.30645782","0.0023942017","9.478644","stand up","0"
"19166187622340","3","0.31364042","0.009576807","9.485827","stand up","0"
"19166207552570","3","0.31603462","0.0047884034","9.483433","stand up","0"
"19166227585340","3","0.31364042","0.01436521","9.488221","stand up","0"
"19166247582840","3","0.32321724","0.0047884034","9.500193","stand up","0"
"19166267625749","3","0.3184288","0.0023942017","9.497798","stand up","0"
"19166287605109","3","0.29927522","0.011971008","9.52174","stand up","0"
"19166307532147","3","0.30885202","0.019153614","9.507375","stand up","0"
"19166327597032","3","0.30406362","0.023942016","9.481039","stand up","0"
"19166347637070","3","0.31124622","0.01436521","9.488221","stand up","0"
"19166367560455","3","0.3184288","0.007182605","9.495404","stand up","0"
"19166387566916","3","0.31364042","0.011971008","9.483433","stand up","0"
"19166407640397","3","0.31603462","0.01436521","9.478644","stand up","0"
"19166427582070","3","0.31603462","0.0","9.497798","stand up","0"
"19166447618425","3","0.32800564","0.011971008","9.49301","stand up","0"
"19166467596916","3","0.32561144","0.007182605","9.473856","stand up","0"
"19166487578262","3","0.3184288","0.01436521","9.485827","stand up","0"
"19166507585466","3","0.3184288","-0.0047884034","9.49301","stand up","0"
"19166527481724","3","0.32561144","0.009576807","9.464279","stand up","0"
"19166547442724","3","0.32321724","0.0023942017","9.512163","stand up","0"
"19166567465647","3","0.3184288","0.019153614","9.514558","stand up","0"
"19166587572038","3","0.3184288","0.0","9.476251","stand up","0"
"19166607561052","3","0.31364042","0.007182605","9.461885","stand up","0"
"19166627538839","3","0.31364042","-0.0023942017","9.56723","stand up","0"
"19166647569597","3","0.3184288","0.011971008","9.471462","stand up","0"
"19166667548416","3","0.29688102","0.0023942017","9.552865","stand up","0"
"19166687463532","3","0.30406362","0.007182605","9.478644","stand up","0"
"19166707536638","3","0.29688102","-0.009576807","9.461885","stand up","0"
"19166727535647","3","0.2801216","0.0","9.509769","stand up","0"
"19166747381455","3","0.2896984","0.0047884034","9.459491","stand up","0"
"19166767534196","3","0.2681506","-0.0023942017","9.560047","stand up","0"
"19166787523210","3","0.30406362","0.01436521","9.516952","stand up","0"
"19166807573259","3","0.25139117","0.009576807","9.516952","stand up","0"
"19166827412031","3","0.33518824","-0.021547815","9.536105","stand up","0"
"19166847551286","3","0.31603462","0.021547815","9.481039","stand up","0"
"19166867540300","3","0.24181437","-0.011971008","9.461885","stand up","0"
"19166887529313","3","0.33039984","-0.055066638","9.562442","stand up","0"
"19166907497878","3","0.23942018","0.08619126","9.354146","stand up","0"
"19166927432070","3","0.30645782","-0.047884032","9.502586","stand up","0"
"19166947363531","3","0.29448682","-0.074220255","9.435549","stand up","0"
"19166967515886","3","0.3184288","0.038307227","9.409213","stand up","0"
"19166987535417","3","0.16759412","-0.02873042","9.502586","stand up","0"
"19167007468185","3","0.35194764","0.02873042","9.576807","stand up","0"
"19167027415993","3","0.18914193","0.021547815","9.385271","stand up","0"
"19167047450031","3","0.2753332","0.0023942017","9.495404","stand up","0"
"19167067489070","3","0.2705448","-0.007182605","9.500193","stand up","0"
"19167087480485","3","0.23463176","0.0","9.481039","stand up","0"
"19167107302377","3","0.28491","0.011971008","9.507375","stand up","0"
"19167127458513","3","0.2705448","-0.0047884034","9.473856","stand up","0"
"19167147447526","3","0.2657564","0.0023942017","9.476251","stand up","0"
"19167167467058","3","0.260968","0.0023942017","9.497798","stand up","0"
"19167187323800","3","0.25857377","-0.0023942017","9.481039","stand up","0"
"19167207445085","3","0.2705448","0.0023942017","9.488221","stand up","0"
"19167227273108","3","0.2657564","0.009576807","9.49301","stand up","0"
"19167247397993","3","0.25617957","0.007182605","9.485827","stand up","0"
"19167267384916","3","0.2705448","0.0023942017","9.490616","stand up","0"
"19167287411800","3","0.2753332","-0.0023942017","9.488221","stand up","0"
"19167307336531","3","0.25617957","0.007182605","9.495404","stand up","0"
"19167327440202","3","0.2633622","0.016759412","9.495404","stand up","0"
"19167347459733","3","0.2681506","0.007182605","9.483433","stand up","0"
"19167367479265","3","0.2681506","0.007182605","9.49301","stand up","0"
"19167387498796","3","0.2777274","-0.0023942017","9.49301","stand up","0"
"19167407487810","3","0.2705448","0.0","9.49301","stand up","0"
"19167427476823","3","0.260968","0.0023942017","9.481039","stand up","0"
"19167447384300","3","0.2681506","0.0047884034","9.473856","stand up","0"
"19167467454851","3","0.25857377","0.0023942017","9.485827","stand up","0"
"19167487474382","3","0.25617957","-0.0023942017","9.490616","stand up","0"
"19167507381608","3","0.2657564","0.0023942017","9.490616","stand up","0"
"19167527452409","3","0.2657564","-0.0047884034","9.488221","stand up","0"
"19167547379608","3","0.2633622","0.0023942017","9.488221","stand up","0"
"19167567430437","3","0.272939","0.009576807","9.485827","stand up","0"
"19167587341723","3","0.2705448","0.0047884034","9.481039","stand up","0"
"19167607392069","3","0.2681506","0.007182605","9.49301","stand up","0"
"19167627427995","3","0.2753332","0.0023942017","9.495404","stand up","0"
"19167647447526","3","0.2753332","-0.0047884034","9.488221","stand up","0"
"19167667452723","3","0.2633622","-0.0047884034","9.485827","stand up","0"
"19167687456071","3","0.25857377","0.011971008","9.481039","stand up","0"
"19167707342762","3","0.2633622","0.0023942017","9.488221","stand up","0"
"19167727492723","3","0.2753332","-0.0047884034","9.49301","stand up","0"
"19167747427685","3","0.2705448","0.0023942017","9.478644","stand up","0"
"19167767478300","3","0.260968","0.009576807","9.488221","stand up","0"
"19167787330454","3","0.2681506","0.0047884034","9.490616","stand up","0"
"19167807385223","3","0.2633622","0.0","9.488221","stand up","0"
"19167827470720","3","0.25857377","0.0","9.49301","stand up","0"
"19167847459733","3","0.260968","0.007182605","9.483433","stand up","0"
"19167867448747","3","0.2657564","-0.0023942017","9.476251","stand up","0"
"19167887437761","3","0.2681506","0.0047884034","9.49301","stand up","0"
"19167907443685","3","0.2633622","0.0023942017","9.490616","stand up","0"
"19167927476823","3","0.2681506","0.0047884034","9.483433","stand up","0"
"19167947427338","3","0.25378537","0.007182605","9.481039","stand up","0"
"19167967375108","3","0.2681506","0.0047884034","9.485827","stand up","0"
"19167987474382","3","0.272939","0.0023942017","9.502586","stand up","0"
"19168007493913","3","0.2705448","-0.0023942017","9.490616","stand up","0"
"19168027415723","3","0.2681506","0.01436521","9.490616","stand up","0"
"19168047425761","3","0.25857377","0.0","9.488221","stand up","0"
"19168067333031","3","0.2657564","0.0047884034","9.495404","stand up","0"
"19168087270107","3","0.2681506","-0.0047884034","9.481039","stand up","0"
"19168107435915","3","0.25617957","0.0","9.488221","stand up","0"
"19168127306146","3","0.2681506","0.0","9.495404","stand up","0"
"19168147368184","3","0.2633622","0.0023942017","9.49301","stand up","0"
"19168167280607","3","0.2633622","0.007182605","9.485827","stand up","0"
"19168187425554","3","0.2657564","0.0","9.490616","stand up","0"
"19168207403607","3","0.2777274","0.01436521","9.488221","stand up","0"
"19168227269338","3","0.260968","0.007182605","9.478644","stand up","0"
"19168247322069","3","0.260968","0.0023942017","9.49301","stand up","0"
"19168267239607","3","0.25857377","0.0023942017","9.488221","stand up","0"
"19168287401140","3","0.25857377","0.0","9.488221","stand up","0"
"19168307247877","3","0.2657564","0.0023942017","9.490616","stand up","0"
"19168327409685","3","0.2777274","-0.0047884034","9.488221","stand up","0"
"19168347195915","3","0.2801216","0.007182605","9.481039","stand up","0"
"19168367328761","3","0.272939","0.0","9.485827","stand up","0"
"19168387376726","3","0.2633622","0.0023942017","9.488221","stand up","0"
"19168407187569","3","0.260968","0.007182605","9.488221","stand up","0"
"19168427198338","3","0.2753332","0.0023942017","9.483433","stand up","0"
"19168447207069","3","0.2657564","0.007182605","9.490616","stand up","0"
"19168467261953","3","0.2657564","0.0","9.490616","stand up","0"
"19168487352312","3","0.2633622","-0.0047884034","9.495404","stand up","0"
"19168507310808","3","0.2657564","0.0023942017","9.490616","stand up","0"
"19168527330339","3","0.2657564","0.007182605","9.490616","stand up","0"
"19168547267376","3","0.2753332","0.0023942017","9.478644","stand up","0"
"19168567215684","3","0.2657564","0.0023942017","9.497798","stand up","0"
"19168587237569","3","0.260968","0.011971008","9.483433","stand up","0"
"19168607243376","3","0.2705448","-0.0047884034","9.490616","stand up","0"
"19168627187722","3","0.25857377","0.0","9.49301","stand up","0"
"19168647128722","3","0.25857377","0.0","9.49301","stand up","0"
"19168667314470","3","0.2705448","0.011971008","9.500193","stand up","0"
"19168687303483","3","0.2705448","0.007182605","9.495404","stand up","0"
"19168707109299","3","0.2753332","-0.007182605","9.481039","stand up","0"
"19168727281511","3","0.2657564","-0.0047884034","9.483433","stand up","0"
"19168747098453","3","0.2681506","0.01436521","9.481039","stand up","0"
"19168767290056","3","0.2657564","0.009576807","9.481039","stand up","0"
"19168787279069","3","0.260968","0.0023942017","9.490616","stand up","0"
"19168807226453","3","0.2657564","-0.0023942017","9.485827","stand up","0"
"19168827079645","3","0.2681506","0.007182605","9.478644","stand up","0"
"19168847179530","3","0.2633622","-0.0023942017","9.483433","stand up","0"
"19168867137684","3","0.2657564","0.0","9.49301","stand up","0"
"19168887254655","3","0.2633622","0.0047884034","9.490616","stand up","0"
"19168907225684","3","0.2657564","0.011971008","9.483433","stand up","0"
"19168927210222","3","0.25857377","0.0023942017","9.485827","stand up","0"
"19168947193915","3","0.2705448","-0.007182605","9.485827","stand up","0"
"19168967241228","3","0.260968","0.0023942017","9.490616","stand up","0"
"19168987230241","3","0.2657564","-0.007182605","9.481039","stand up","0"
"19169007148145","3","0.25617957","0.0","9.497798","stand up","0"
"19169027029030","3","0.25617957","-0.0047884034","9.481039","stand up","0"
"19169047197282","3","0.2681506","-0.0023942017","9.500193","stand up","0"
"19169067114376","3","0.2681506","0.0023942017","9.483433","stand up","0"
"19169087205827","3","0.2681506","0.007182605","9.497798","stand up","0"
"19169107032838","3","0.2705448","0.0023942017","9.495404","stand up","0"
"19169127020184","3","0.2705448","0.011971008","9.485827","stand up","0"
"19169147125837","3","0.260968","0.0","9.490616","stand up","0"
"19169167161882","3","0.272939","0.01436521","9.490616","stand up","0"
"19169187089299","3","0.2633622","-0.007182605","9.478644","stand up","0"
"19169207170427","3","0.2705448","0.0023942017","9.485827","stand up","0"
"19169227005953","3","0.2681506","0.0023942017","9.490616","stand up","0"
"19169247160684","3","0.260968","0.009576807","9.49301","stand up","0"
"19169267167985","3","0.2657564","0.0","9.483433","stand up","0"
"19169287156999","3","0.260968","-0.0023942017","9.481039","stand up","0"
"19169307146013","3","0.2705448","0.0047884034","9.495404","stand up","0"
"19169327101376","3","0.2705448","0.0047884034","9.483433","stand up","0"
"19169346948530","3","0.272939","0.0023942017","9.488221","stand up","0"
"19169367113054","3","0.25857377","-0.0023942017","9.485827","stand up","0"
"19169387132585","3","0.2657564","0.0047884034","9.49301","stand up","0"
"19169407152116","3","0.2633622","0.0","9.490616","stand up","0"
"19169426979683","3","0.2753332","0.009576807","9.49301","stand up","0"
"19169447129953","3","0.2633622","-0.007182605","9.485827","stand up","0"
"19169467005376","3","0.2753332","0.0","9.49301","stand up","0"
"19169486986299","3","0.2681506","0.0023942017","9.49301","stand up","0"
"19169507158220","3","0.25857377","0.007182605","9.488221","stand up","0"
"19169526972645","3","0.2633622","0.009576807","9.485827","stand up","0"
"19169547061337","3","0.2657564","0.0","9.490616","stand up","0"
"19169567092837","3","0.2633622","0.0023942017","9.490616","stand up","0"
"19169587134260","3","0.2801216","-0.0023942017","9.473856","stand up","0"
"19169607164323","3","0.2705448","0.011971008","9.490616","stand up","0"
"19169627183854","3","0.2681506","0.0","9.495404","stand up","0"
"19169647172868","3","0.272939","0.0023942017","9.485827","stand up","0"
"19169667029683","3","0.260968","0.007182605","9.490616","stand up","0"
"19169687181413","3","0.2705448","0.009576807","9.49301","stand up","0"
"19169707170427","3","0.2705448","-0.0047884034","9.485827","stand up","0"
"19169727016491","3","0.260968","0.007182605","9.490616","stand up","0"
"19169747148454","3","0.2681506","-0.0023942017","9.488221","stand up","0"
"19169766963260","3","0.2681506","0.009576807","9.485827","stand up","0"
"19169787079952","3","0.2681506","0.0047884034","9.488221","stand up","0"
"19169826841663","3","0.2753332","0.0023942017","9.481039","none","1"
"19169846861194","3","0.2705448","-0.009576807","9.488221","none","1"
"19169866850207","3","0.2633622","-0.0023942017","9.49301","none","1"
"19169886839221","3","0.2705448","-0.0023942017","9.497798","none","1"
"19169906828235","3","0.2633622","0.011971008","9.49301","none","1"
"19169926817248","3","0.2681506","0.0","9.481039","none","1"
"19169946806262","3","0.2657564","0.009576807","9.488221","none","1"
"19169966825793","3","0.2633622","0.0047884034","9.490616","none","1"
"19169986814807","3","0.2681506","0.0","9.49301","none","1"
"19170006803821","3","0.2705448","0.01436521","9.485827","none","1"
"19170026823352","3","0.2657564","0.0023942017","9.485827","none","1"
"19170046842883","3","0.2705448","0.007182605","9.495404","none","1"
"19170066862414","3","0.2681506","0.0","9.488221","none","1"
"19170086820911","3","0.2657564","0.0","9.490616","none","1"
"19170106840442","3","0.2633622","0.0047884034","9.49301","none","1"
"19170126859973","3","0.2657564","0.0023942017","9.488221","none","1"
"19170146848987","3","0.2657564","-0.009576807","9.49301","none","1"
"19170166868518","3","0.2705448","0.0023942017","9.476251","none","1"
"19170186857532","3","0.2777274","0.007182605","9.483433","none","1"
"19170206846545","3","0.2753332","-0.009576807","9.490616","none","1"
"19170226866077","3","0.260968","0.0","9.495404","none","1"
"19170246855090","3","0.260968","0.0023942017","9.478644","none","1"
"19170266874622","3","0.2681506","-0.0023942017","9.481039","none","1"
"19170286863635","3","0.272939","0.0","9.490616","none","1"
"19170306822131","3","0.2633622","0.0","9.49301","none","1"
"19170326841663","3","0.2633622","-0.0023942017","9.49301","none","1"
"19170346861194","3","0.260968","0.0023942017","9.483433","none","1"
"19170366880725","3","0.2633622","0.007182605","9.49301","none","1"
"19170386900256","3","0.2681506","-0.0047884034","9.497798","none","1"
"19170406889270","3","0.272939","0.007182605","9.490616","none","1"
"19170426878284","3","0.2633622","0.009576807","9.490616","none","1"
"19170446897815","3","0.25857377","0.0","9.481039","none","1"
"19170466886829","3","0.2633622","0.007182605","9.500193","none","1"
"19170486875842","3","0.260968","0.009576807","9.497798","none","1"
"19170506864856","3","0.2681506","0.007182605","9.483433","none","1"
"19170526853870","3","0.2705448","0.016759412","9.488221","none","1"
"19170546842883","3","0.2633622","0.0047884034","9.485827","none","1"
"19170566831897","3","0.2657564","0.0","9.483433","none","1"
"19170586820911","3","0.25857377","0.0","9.490616","none","1"
"19170606840442","3","0.260968","-0.0023942017","9.488221","none","1"
"19170626829455","3","0.25617957","-0.0023942017","9.481039","none","1"
"19170646818469","3","0.272939","-0.009576807","9.478644","none","1"
"19170666838000","3","0.2657564","0.0023942017","9.485827","none","1"
"19170686827014","3","0.2681506","0.0023942017","9.485827","none","1"
"19170706816028","3","0.2633622","0.011971008","9.478644","none","1"
"19170726835559","3","0.25378537","0.009576807","9.478644","none","1"
"19170746824573","3","0.260968","-0.0023942017","9.488221","none","1"
"19170766844104","3","0.2705448","0.0047884034","9.495404","none","1"
"19170786833118","3","0.260968","0.0023942017","9.485827","none","1"
"19170806852649","3","0.2657564","0.0047884034","9.490616","none","1"
"19170826841663","3","0.2681506","0.0023942017","9.490616","none","1"
"19170846861194","3","0.2633622","-0.0047884034","9.488221","none","1"
"19170866850207","3","0.2705448","0.007182605","9.478644","none","1"
"19170886839221","3","0.25857377","0.0","9.500193","none","1"
"19170906828235","3","0.2753332","0.007182605","9.481039","none","1"
"19170926817248","3","0.260968","-0.009576807","9.488221","none","1"
"19170946806262","3","0.2633622","0.0","9.485827","none","1"
"19170966795276","3","0.2657564","0.007182605","9.49301","none","1"
"19170986784289","3","0.2705448","0.0","9.500193","none","1"
"19171006773303","3","0.2657564","-0.007182605","9.485827","none","1"
"19171026762317","3","0.2681506","0.0047884034","9.488221","none","1"
"19171046751330","3","0.260968","0.0","9.49301","none","1"
"19171066770862","3","0.260968","0.007182605","9.49301","none","1"
"19171086759875","3","0.2705448","-0.011971008","9.485827","none","1"
"19171106748889","3","0.2681506","-0.0023942017","9.49301","none","1"
"19171126737903","3","0.260968","0.011971008","9.488221","none","1"
"19171146726916","3","0.2681506","0.0047884034","9.495404","none","1"
"19171166746448","3","0.2633622","0.0","9.500193","none","1"
"19171186735461","3","0.2681506","0.0","9.488221","none","1"
"19171206724475","3","0.25617957","-0.0047884034","9.490616","none","1"
"19171226713489","3","0.25857377","0.009576807","9.481039","none","1"
"19171246733020","3","0.260968","0.0023942017","9.497798","none","1"
"19171266722034","3","0.2777274","0.0023942017","9.49301","none","1"
"19171286741565","3","0.2657564","-0.0023942017","9.485827","none","1"
"19171306730579","3","0.2753332","-0.0047884034","9.481039","none","1"
"19171326719592","3","0.2633622","-0.0023942017","9.483433","none","1"
"19171346708606","3","0.2681506","0.0047884034","9.481039","none","1"
"19171366697620","3","0.2753332","0.0023942017","9.488221","none","1"
"19171386717151","3","0.2633622","0.0","9.478644","none","1"
"19171406706164","3","0.2657564","0.011971008","9.490616","none","1"
"19171426695178","3","0.2705448","0.009576807","9.488221","none","1"
"19171446684192","3","0.2657564","0.0","9.488221","none","1"
"19171466673205","3","0.2705448","0.0047884034","9.483433","none","1"
"19171486662219","3","0.2705448","0.011971008","9.490616","none","1"
"19171506651233","3","0.272939","-0.0023942017","9.488221","none","1"
"19171526670764","3","0.2657564","0.0","9.497798","none","1"
"19171546659778","3","0.272939","0.0023942017","9.483433","none","1"
"19171566648791","3","0.2705448","0.009576807","9.478644","none","1"
"19171586637805","3","0.2681506","0.0023942017","9.485827","none","1"
"19171606626819","3","0.272939","0.007182605","9.495404","none","1"
"19171626615832","3","0.260968","0.007182605","9.483433","none","1"
"19171646604846","3","0.2633622","0.009576807","9.483433","none","1"
"19171666593860","3","0.2705448","0.0023942017","9.488221","none","1"
"19171686613391","3","0.25617957","0.0","9.483433","none","1"
"19171706602405","3","0.2753332","-0.007182605","9.481039","none","1"
"19171726591418","3","0.2681506","0.007182605","9.485827","none","1"
"19171746580432","3","0.260968","-0.0023942017","9.488221","none","1"
"19171766599963","3","0.2657564","0.009576807","9.490616","none","1"
"19171786588977","3","0.2681506","-0.009576807","9.488221","none","1"
"19171806577991","3","0.2705448","0.0023942017","9.497798","none","1"
"19171826567004","3","0.2681506","0.0","9.49301","none","1"
"19171846556018","3","0.2681506","0.0023942017","9.483433","none","1"
"19171866545032","3","0.2681506","0.009576807","9.490616","none","1"
"19171886503528","3","0.260968","-0.0023942017","9.49301","none","1"
"19171906523059","3","0.2705448","0.0","9.485827","none","1"
"19171926542590","3","0.272939","0.0023942017","9.481039","none","1"
"19171946531604","3","0.2633622","0.0","9.488221","none","1"
"19171966551135","3","0.2705448","0.0023942017","9.49301","none","1"
"19171986540149","3","0.2633622","0.0","9.483433","none","1"
"19172006529163","3","0.2705448","-0.0023942017","9.49301","none","1"
"19172026518176","3","0.2681506","-0.0023942017","9.483433","none","1"
"19172046537707","3","0.2681506","0.0023942017","9.490616","none","1"
"19172066526721","3","0.260968","0.0","9.483433","none","1"
"19172086515735","3","0.2705448","-0.0047884034","9.488221","none","1"
"19172106504748","3","0.2633622","0.009576807","9.485827","none","1"
"19172126493762","3","0.2681506","0.0023942017","9.483433","none","1"
"19172146482776","3","0.2633622","0.0","9.495404","none","1"
"19172166471789","3","0.2705448","0.0047884034","9.483433","none","1"
"19172186491321","3","0.260968","0.0023942017","9.476251","none","1"
"19172206480334","3","0.272939","0.007182605","9.478644","none","1"
"19172226469348","3","0.25857377","-0.0023942017","9.490616","none","1"
"19172246458362","3","0.2633622","0.007182605","9.495404","none","1"
"19172266416858","3","0.25857377","0.007182605","9.488221","none","1"
"19172286436389","3","0.2657564","0.0047884034","9.495404","none","1"
"19172306455920","3","0.25617957","0.0","9.49301","none","1"
"19172326444934","3","0.2657564","0.0047884034","9.478644","none","1"
"19172346433948","3","0.2633622","0.016759412","9.488221","none","1"
"19172366453479","3","0.260968","0.0047884034","9.473856","none","1"
"19172386442493","3","0.2705448","0.0023942017","9.481039","none","1"
"19172406431506","3","0.2633622","0.0047884034","9.481039","none","1"
"19172426420520","3","0.2681506","0.009576807","9.488221","none","1"
"19172446409534","3","0.25617957","0.007182605","9.485827","none","1"
"19172466398547","3","0.2681506","0.011971008","9.488221","none","1"
"19172486418079","3","0.260968","0.0023942017","9.488221","none","1"
"19172506407092","3","0.25857377","0.0023942017","9.488221","none","1"
"19172526396106","3","0.2657564","0.007182605","9.483433","none","1"
"19172546385120","3","0.260968","0.0","9.483433","none","1"
"19172566374133","3","0.2681506","0.0023942017","9.485827","none","1"
"19172586363147","3","0.272939","-0.0023942017","9.481039","none","1"
"19172606382678","3","0.2633622","-0.0023942017","9.478644","none","1"
"19172626371692","3","0.2681506","0.0047884034","9.485827","none","1"
"19172646360705","3","0.2633622","-0.0047884034","9.488221","none","1"
"19172666349719","3","0.2633622","0.0047884034","9.500193","none","1"
"19172686369250","3","0.25617957","0.011971008","9.488221","none","1"
"19172706358264","3","0.25378537","0.0023942017","9.473856","none","1"
"19172726377795","3","0.25857377","0.0047884034","9.488221","none","1"
"19172746366809","3","0.2657564","0.009576807","9.488221","none","1"
"19172766355823","3","0.2705448","-0.007182605","9.485827","none","1"
"19172786344836","3","0.2633622","0.007182605","9.473856","none","1"
"19172806333850","3","0.272939","0.0023942017","9.490616","none","1"
"19172826322864","3","0.2633622","0.009576807","9.485827","none","1"
"19172846342395","3","0.2753332","0.0047884034","9.488221","none","1"
"19172866361926","3","0.2657564","0.009576807","9.488221","none","1"
"19172886350940","3","0.2633622","0.009576807","9.481039","none","1"
"19172906339954","3","0.25617957","0.0023942017","9.490616","none","1"
"19172926328967","3","0.2633622","0.0","9.488221","none","1"
"19172946317981","3","0.260968","0.0023942017","9.485827","none","1"
"19172966306995","3","0.260968","0.007182605","9.481039","none","1"
"19172986296008","3","0.2633622","0.0","9.500193","none","1"
"19173006285022","3","0.272939","-0.0047884034","9.49301","none","1"
"19173026274036","3","0.2777274","0.0047884034","9.483433","none","1"
"19173046263049","3","0.2705448","-0.007182605","9.490616","none","1"
"19173066252063","3","0.24899697","-0.0023942017","9.478644","none","1"
"19173086271594","3","0.2705448","0.0023942017","9.490616","none","1"
"19173106260608","3","0.2633622","-0.0023942017","9.490616","none","1"
"19173126249622","3","0.2633622","0.009576807","9.485827","none","1"
"19173146208118","3","0.2705448","0.0","9.483433","none","1"
"19173166227649","3","0.2753332","0.0047884034","9.483433","none","1"
"19173186216663","3","0.2681506","0.0023942017","9.490616","none","1"
"19173206205676","3","0.2633622","-0.0047884034","9.488221","none","1"
"19173226194690","3","0.25857377","0.009576807","9.485827","none","1"
"19173246183704","3","0.2705448","0.0023942017","9.490616","none","1"
"19173266172717","3","0.2633622","-0.0023942017","9.49301","none","1"
"19173286161731","3","0.2633622","0.009576807","9.500193","none","1"
"19173306120227","3","0.260968","-0.0047884034","9.495404","none","1"
"19173326139758","3","0.260968","0.009576807","9.485827","none","1"
"19173346128772","3","0.2681506","0.007182605","9.481039","none","1"
"19173366117786","3","0.272939","-0.009576807","9.476251","none","1"
"19173386106799","3","0.2705448","0.0","9.488221","none","1"
"19173406095813","3","0.2633622","0.0047884034","9.488221","none","1"
"19173426084827","3","0.260968","-0.0023942017","9.481039","none","1"
"19173446073840","3","0.2681506","0.011971008","9.500193","none","1"
"19173466062854","3","0.2633622","-0.007182605","9.483433","none","1"
"19173486051868","3","0.2681506","0.0023942017","9.485827","none","1"
"19173506040881","3","0.2681506","0.007182605","9.49301","none","1"
"19173526060413","3","0.260968","0.011971008","9.495404","none","1"
"19173546049426","3","0.2633622","0.0047884034","9.500193","none","1"
"19173566068957","3","0.2705448","0.0","9.485827","none","1"
"19173586057971","3","0.2657564","0.0","9.490616","none","1"
"19173606077502","3","0.272939","-0.0047884034","9.495404","none","1"
"19173626066516","3","0.25617957","0.0047884034","9.476251","none","1"
"19173646055530","3","0.2657564","0.007182605","9.488221","none","1"
"19173666044543","3","0.2633622","-0.0047884034","9.488221","none","1"
"19173686033557","3","0.2681506","0.0047884034","9.485827","none","1"
"19173706022571","3","0.2633622","0.007182605","9.488221","none","1"
"19173726011584","3","0.2633622","-0.0023942017","9.483433","none","1"
"19173746000598","3","0.2633622","-0.009576807","9.483433","none","1"
"19173765989612","3","0.2633622","0.011971008","9.49301","none","1"
"19173785978625","3","0.2657564","0.0023942017","9.485827","sit down","1"
"19173805967639","3","0.2681506","-0.0023942017","9.481039","sit down","1"
"19173825987170","3","0.25857377","-0.0023942017","9.488221","sit down","1"
"19173846006702","3","0.2657564","0.0023942017","9.485827","sit down","1"
"19173865995715","3","0.2753332","0.0023942017","9.485827","sit down","1"
"19173885984729","3","0.272939","0.011971008","9.49301","sit down","1"
"19173905973743","3","0.2681506","0.007182605","9.49301","sit down","1"
"19173925962756","3","0.2681506","0.0047884034","9.483433","sit down","1"
"19173945951770","3","0.2681506","0.0023942017","9.485827","sit down","1"
"19173965940784","3","0.260968","0.0047884034","9.49301","sit down","1"
"19173985929797","3","0.2705448","0.009576807","9.49301","sit down","1"
"19174005918811","3","0.25617957","0.0023942017","9.481039","sit down","1"
"19174025907825","3","0.2633622","-0.0023942017","9.49301","sit down","1"
"19174045896838","3","0.2681506","0.0","9.495404","sit down","1"
"19174065885852","3","0.2633622","0.007182605","9.483433","sit down","1"
"19174085874866","3","0.2777274","-0.0047884034","9.483433","sit down","1"
"19174105863879","3","0.2753332","-0.0047884034","9.490616","sit down","1"
"19174125852893","3","0.25857377","0.0023942017","9.490616","sit down","1"
"19174145841907","3","0.260968","0.007182605","9.483433","sit down","1"
"19174165830920","3","0.2777274","0.009576807","9.490616","sit down","1"
"19174185850452","3","0.2657564","0.0","9.485827","sit down","1"
"19174205839465","3","0.2753332","-0.0023942017","9.488221","sit down","1"
"19174225828479","3","0.272939","-0.009576807","9.485827","sit down","1"
"19174245817493","3","0.2753332","0.0","9.49301","sit down","1"
"19174265837024","3","0.2777274","0.0023942017","9.478644","sit down","1"
"19174285826038","3","0.260968","0.0047884034","9.497798","sit down","1"
"19174305845569","3","0.2681506","0.0023942017","9.497798","sit down","1"
"19174325834582","3","0.2681506","0.009576807","9.473856","sit down","1"
"19174345823596","3","0.2657564","0.0023942017","9.481039","sit down","1"
"19174365843127","3","0.2681506","-0.0023942017","9.495404","sit down","1"
"19174385893176","3","0.2681506","0.011971008","9.488221","sit down","1"
"19174405882190","3","0.2657564","0.009576807","9.49301","sit down","1"
"19174425901721","3","0.260968","0.0","9.481039","sit down","1"
"19174445921252","3","0.2681506","0.009576807","9.49301","sit down","1"
"19174465940784","3","0.2705448","0.007182605","9.490616","sit down","1"
"19174485929797","3","0.2705448","0.0023942017","9.481039","sit down","1"
"19174505949329","3","0.2633622","0.0","9.481039","sit down","1"
"19174525938342","3","0.2657564","-0.0023942017","9.473856","sit down","1"
"19174545957873","3","0.2633622","0.009576807","9.485827","sit down","1"
"19174565946887","3","0.2753332","0.0047884034","9.488221","sit down","1"
"19174585935901","3","0.260968","0.009576807","9.488221","sit down","1"
"19174605924914","3","0.2633622","0.0047884034","9.476251","sit down","1"
"19174625913928","3","0.260968","0.007182605","9.49301","sit down","1"
"19174645902942","3","0.2633622","0.0","9.495404","sit down","1"
"19174665891955","3","0.2657564","0.0023942017","9.495404","sit down","1"
"19174685880969","3","0.2633622","0.0","9.488221","sit down","1"
"19174705869983","3","0.2657564","-0.0023942017","9.497798","sit down","1"
"19174725889514","3","0.2753332","0.0047884034","9.485827","sit down","1"
"19174745878528","3","0.2633622","0.0","9.481039","sit down","1"
"19174765867541","3","0.2681506","0.009576807","9.495404","sit down","1"
"19174785856555","3","0.2753332","-0.01436521","9.485827","sit down","1"
"19174805845569","3","0.2777274","0.0023942017","9.485827","sit down","1"
"19174825834582","3","0.2633622","0.0047884034","9.485827","sit down","1"
"19174845823596","3","0.2705448","0.007182605","9.476251","sit down","1"
"19174865812610","3","0.2657564","0.01436521","9.481039","sit down","1"
"19174885832141","3","0.2705448","-0.0047884034","9.478644","sit down","1"
"19174905821155","3","0.260968","-0.0047884034","9.471462","sit down","1"
"19174925810168","3","0.2633622","-0.0023942017","9.481039","sit down","1"
"19174945829700","3","0.2825158","0.019153614","9.485827","sit down","1"
"19174965818713","3","0.2896984","0.011971008","9.485827","sit down","1"
"19174985807727","3","0.2873042","-0.016759412","9.416395","sit down","1"
"19175005796741","3","0.31603462","-0.021547815","9.459491","sit down","1"
"19175025785754","3","0.2896984","-0.019153614","9.478644","sit down","1"
"19175045805286","3","0.30406362","0.016759412","9.416395","sit down","1"
"19175065794299","3","0.2753332","0.06464344","9.41879","sit down","1"
"19175085783313","3","0.16519992","0.0023942017","9.356541","sit down","1"
"19175105772327","3","0.30645782","0.05746084","9.481039","sit down","1"
"19175125761340","3","0.2753332","0.05267244","9.375694","sit down","1"
"19175145780872","3","0.39025488","-0.011971008","9.744401","sit down","1"
"19175165769885","3","0.23702596","0.0","9.758766","sit down","1"
"19175185789416","3","0.34476504","-0.02633622","9.713276","sit down","1"
"19175205808948","3","0.2801216","0.021547815","9.404425","sit down","1"
"19175225797961","3","0.2873042","0.01436521","9.452309","sit down","1"
"19175245817493","3","0.24420857","-0.0047884034","9.440337","sit down","1"
"19175265806506","3","0.260968","-0.0047884034","9.425972","sit down","1"
"19175285795520","3","0.260968","0.007182605","9.440337","sit down","1"
"19175305784534","3","0.2681506","0.007182605","9.437943","sit down","1"
"19175325773547","3","0.2825158","0.016759412","9.495404","sit down","1"
"19175345762561","3","0.2825158","0.016759412","9.471462","sit down","1"
"19175365751575","3","0.30166942","0.007182605","9.536105","sit down","1"
"19175385740588","3","0.29448682","-0.0023942017","9.514558","sit down","1"
"19175405760120","3","0.30166942","0.011971008","9.509769","sit down","1"
"19175425749133","3","0.30166942","0.009576807","9.504981","sit down","1"
"19175445738147","3","0.29927522","0.016759412","9.481039","sit down","1"
"19175465727161","3","0.30166942","0.01436521","9.478644","sit down","1"
"19175485746692","3","0.29927522","0.007182605","9.473856","sit down","1"
"19175505735705","3","0.30406362","0.01436521","9.454702","sit down","1"
"19175525724719","3","0.29448682","0.021547815","9.483433","sit down","1"
"19175545713733","3","0.30885202","0.01436521","9.531317","sit down","1"
"19175565733264","3","0.30166942","0.021547815","9.526528","sit down","1"
"19175585752795","3","0.30406362","0.021547815","9.466674","sit down","1"
"19175605741809","3","0.29209262","0.016759412","9.459491","sit down","1"
"19175625730823","3","0.29448682","0.019153614","9.490616","sit down","1"
"19175645750354","3","0.29688102","0.016759412","9.478644","sit down","1"
"19175665739368","3","0.2896984","0.007182605","9.497798","sit down","1"
"19175685758899","3","0.29688102","0.009576807","9.483433","sit down","1"
"19175705747913","3","0.31124622","0.009576807","9.500193","sit down","1"
"19175725767444","3","0.29688102","0.009576807","9.490616","sit down","1"
"19175745786975","3","0.29688102","0.019153614","9.481039","sit down","1"
"19175765775989","3","0.30406362","0.011971008","9.471462","sit down","1"
"19175785765002","3","0.31124622","0.016759412","9.490616","sit down","1"
"19175805754016","3","0.30406362","0.019153614","9.473856","sit down","1"
"19175825743030","3","0.31124622","0.02873042","9.490616","sit down","1"
"19175845732043","3","0.30645782","0.01436521","9.514558","sit down","1"
"19175865721057","3","0.29927522","0.016759412","9.49301","sit down","1"
"19175885710071","3","0.31124622","0.01436521","9.478644","sit down","1"
"19175905699084","3","0.30166942","0.01436521","9.49301","sit down","1"
"19175925688098","3","0.30406362","0.01436521","9.488221","sit down","1"
"19175945707629","3","0.29927522","0.011971008","9.464279","sit down","1"
"19175965696643","3","0.30406362","0.0047884034","9.483433","sit down","1"
"19175985685657","3","0.31124622","0.011971008","9.473856","sit down","1"
"19176005674670","3","0.31364042","0.016759412","9.500193","sit down","1"
"19176025663684","3","0.30406362","0.019153614","9.500193","sit down","1"
"19176045652698","3","0.30645782","0.01436521","9.500193","sit down","1"
"19176065641711","3","0.30645782","0.007182605","9.502586","sit down","1"
"19176085661243","3","0.30166942","0.011971008","9.497798","sit down","1"
"19176105650256","3","0.29927522","0.016759412","9.485827","sit down","1"
"19176125639270","3","0.30885202","0.016759412","9.476251","sit down","1"
"19176145628284","3","0.30166942","0.023942016","9.490616","sit down","1"
"19176165617297","3","0.29688102","0.01436521","9.483433","sit down","1"
"19176185636829","3","0.2896984","0.019153614","9.485827","sit down","1"
"19176205625842","3","0.29927522","0.011971008","9.483433","sit down","1"
"19176225645373","3","0.30645782","0.019153614","9.478644","sit down","1"
"19176245634387","3","0.30406362","0.01436521","9.473856","sit down","1"
"19176265623401","3","0.29927522","0.016759412","9.478644","sit down","1"
"19176285612414","3","0.30166942","0.019153614","9.485827","sit down","1"
"19176305601428","3","0.30645782","0.01436521","9.495404","sit down","1"
"19176325590442","3","0.30885202","0.0047884034","9.500193","sit down","1"
"19176345609973","3","0.30885202","0.01436521","9.497798","sit down","1"
"19176365598987","3","0.29209262","0.011971008","9.485827","sit down","1"
"19176385588000","3","0.3184288","0.007182605","9.485827","sit down","1"
"19176405577014","3","0.30645782","0.021547815","9.476251","sit down","1"
"19176425535510","3","0.30645782","0.009576807","9.500193","sit down","1"
"19176445555041","3","0.31124622","0.01436521","9.49301","sit down","1"
"19176465605090","3","0.30885202","0.01436521","9.485827","sit down","1"
"19176485594104","3","0.29448682","0.01436521","9.476251","sit down","1"
"19176505613635","3","0.29927522","0.0047884034","9.49301","sit down","1"
"19176525633166","3","0.29209262","0.019153614","9.495404","sit down","1"
"19176545622180","3","0.30885202","0.016759412","9.478644","sit down","1"
"19176565611194","3","0.30645782","0.023942016","9.478644","sit down","1"
"19176585630725","3","0.30166942","0.016759412","9.485827","sit down","1"
"19176605619739","3","0.30166942","0.01436521","9.490616","sit down","1"
"19176625608752","3","0.31124622","0.016759412","9.497798","sit down","1"
"19176645597766","3","0.30166942","0.009576807","9.500193","sit down","1"
"19176665586780","3","0.30166942","0.01436521","9.483433","sit down","1"
"19176685575793","3","0.30166942","0.011971008","9.481039","sit down","1"
"19176705534289","3","0.31364042","0.016759412","9.473856","sit down","1"
"19176725553821","3","0.30406362","0.007182605","9.485827","sit down","1"
"19176745573352","3","0.30406362","0.009576807","9.488221","sit down","1"
"19176765562366","3","0.29927522","0.007182605","9.490616","sit down","1"
"19176785551379","3","0.30645782","0.009576807","9.485827","sit down","1"
"19176805540393","3","0.30885202","0.021547815","9.490616","sit down","1"
"19176825559924","3","0.30406362","0.011971008","9.483433","sit down","1"
"19176845548938","3","0.30166942","0.01436521","9.481039","sit down","1"
"19176865537952","3","0.29927522","0.016759412","9.488221","sit down","1"
"19176885557483","3","0.29927522","0.009576807","9.495404","sit down","1"
"19176905546497","3","0.29688102","0.02873042","9.478644","sit down","1"
"19176925535510","3","0.29448682","0.011971008","9.49301","sit down","1"
"19176945524524","3","0.29688102","0.019153614","9.488221","sit down","1"
"19176965513538","3","0.29927522","0.016759412","9.485827","sit down","1"
"19176985502551","3","0.29448682","0.01436521","9.483433","sit down","1"
"19177005491565","3","0.31124622","0.019153614","9.49301","sit down","1"
"19177025480579","3","0.31124622","0.007182605","9.481039","sit down","1"
"19177045500110","3","0.30406362","0.019153614","9.485827","sit down","1"
"19177065489123","3","0.29448682","0.007182605","9.476251","sit down","1"
"19177085478137","3","0.29448682","0.009576807","9.485827","sit down","1"
"19177105467151","3","0.30406362","0.01436521","9.485827","sit down","1"
"19177125486682","3","0.30406362","0.009576807","9.481039","sit down","1"
"19177145475696","3","0.29927522","0.016759412","9.504981","sit down","1"
"19177165495227","3","0.29688102","0.016759412","9.471462","sit down","1"
"19177185514758","3","0.29688102","0.011971008","9.481039","sit down","1"
"19177205503772","3","0.30885202","0.01436521","9.485827","sit down","1"
"19177225492786","3","0.31124622","0.01436521","9.497798","sit down","1"
"19177245512317","3","0.29927522","0.011971008","9.485827","sit down","1"
"19177265562366","3","0.30645782","0.009576807","9.490616","sit down","1"
"19177285551379","3","0.29688102","0.016759412","9.483433","sit down","1"
"19177305570911","3","0.29927522","0.0047884034","9.483433","sit down","1"
"19177325559924","3","0.30645782","0.009576807","9.488221","sit down","1"
"19177345548938","3","0.30406362","0.007182605","9.478644","sit down","1"
"19177365568469","3","0.29927522","0.021547815","9.49301","sit down","1"
"19177385557483","3","0.29688102","0.009576807","9.483433","sit down","1"
"19177405546497","3","0.30645782","0.009576807","9.478644","sit down","1"
"19177425596545","3","0.31364042","0.007182605","9.485827","sit down","1"
"19177445585559","3","0.30166942","0.019153614","9.488221","sit down","1"
"19177465605090","3","0.30885202","0.01436521","9.49301","sit down","1"
"19177485594104","3","0.30406362","0.0023942017","9.497798","sit down","1"
"19177505583118","3","0.30166942","0.01436521","9.488221","sit down","1"
"19177525602649","3","0.29448682","0.007182605","9.49301","sit down","1"
"19177545591663","3","0.30885202","0.007182605","9.49301","sit down","1"
"19177565580676","3","0.29927522","0.009576807","9.481039","sit down","1"
"19177585569690","3","0.29927522","0.007182605","9.483433","sit down","1"
"19177605558704","3","0.29927522","0.01436521","9.476251","sit down","1"
"19177625547717","3","0.30166942","-0.0023942017","9.500193","sit down","1"
"19177645567248","3","0.30166942","0.011971008","9.481039","sit down","1"
"19177665586780","3","0.30406362","0.009576807","9.476251","sit down","1"
"19177685606311","3","0.29927522","0.0023942017","9.49301","sit down","1"
"19177705595325","3","0.30645782","0.009576807","9.481039","sit down","1"
"19177725404356","3","0.31124622","0.007182605","9.500193","sit down","1"
"19177745393369","3","0.29448682","0.009576807","9.483433","sit down","1"
"19177765382383","3","0.30645782","0.009576807","9.485827","sit down","1"
"19177785371397","3","0.29927522","0.007182605","9.49301","lay down","1"
"19177805360410","3","0.29688102","0.0047884034","9.485827","lay down","1"
"19177825349424","3","0.30166942","0.007182605","9.478644","lay down","1"
"19177845338438","3","0.30406362","0.01436521","9.483433","lay down","1"
"19177865357969","3","0.30406362","0.011971008","9.490616","lay down","1"
"19177885346983","3","0.30166942","0.016759412","9.471462","lay down","1"
"19177905366514","3","0.31124622","0.0047884034","9.488221","lay down","1"
"19177925386045","3","0.29688102","0.007182605","9.473856","lay down","1"
"19177945375059","3","0.30166942","0.011971008","9.497798","lay down","1"
"19177965364073","3","0.29927522","0.0047884034","9.497798","lay down","1"
"19177985353086","3","0.30166942","0.0023942017","9.483433","lay down","1"
"19178005342100","3","0.30885202","0.01436521","9.49301","lay down","1"
"19178025331114","3","0.30406362","0.0023942017","9.473856","lay down","1"
"19178045350645","3","0.30885202","0.0","9.478644","lay down","1"
"19178065339658","3","0.29927522","0.0023942017","9.476251","lay down","1"
"19178085328672","3","0.30885202","0.007182605","9.504981","lay down","1"
"19178105287168","3","0.30645782","0.0","9.497798","lay down","1"
"19178125306699","3","0.29927522","0.009576807","9.454702","lay down","1"
"19178145295713","3","0.29927522","0.0023942017","9.502586","lay down","1"
"19178165284727","3","0.29448682","0.016759412","9.485827","lay down","1"
"19178185304258","3","0.29688102","0.016759412","9.464279","lay down","1"
"19178205323789","3","0.30645782","0.009576807","9.485827","lay down","1"
"19178225312803","3","0.29927522","0.0047884034","9.514558","lay down","1"
"19178245332334","3","0.30406362","0.01436521","9.500193","lay down","1"
"19178265321348","3","0.30166942","0.0047884034","9.445126","lay down","1"
"19178285340879","3","0.29448682","0.007182605","9.483433","lay down","1"
"19178305329893","3","0.29209262","0.007182605","9.469068","lay down","1"
"19178325288389","3","0.29688102","-0.0047884034","9.481039","lay down","1"
"19178345307920","3","0.30406362","0.0023942017","9.52174","lay down","1"
"19178365296934","3","0.30645782","0.01436521","9.449914","lay down","1"
"19178385285948","3","0.31124622","0.0","9.478644","lay down","1"
"19178405274961","3","0.30406362","0.01436521","9.459491","lay down","1"
"19178425263975","3","0.28491","-0.0023942017","9.552865","lay down","1"
"19178445252989","3","0.320823","-0.0047884034","9.500193","lay down","1"
"19178465242002","3","0.2896984","-0.011971008","9.421184","lay down","1"
"19178485231016","3","0.30645782","0.0","9.469068","lay down","1"
"19178505220030","3","0.29927522","-0.0023942017","9.569624","lay down","1"
"19178525209043","3","0.29209262","0.0023942017","9.476251","lay down","1"
"19178545198057","3","0.3184288","-0.011971008","9.421184","lay down","1"
"19178565217588","3","0.34237084","-0.011971008","9.49301","lay down","1"
"19178585206602","3","0.29688102","0.0","9.488221","lay down","1"
"19178605195615","3","0.32321724","0.0023942017","9.481039","lay down","1"
"19178625184629","3","0.30406362","0.0023942017","9.488221","lay down","1"
"19178645173643","3","0.29688102","0.0","9.548077","lay down","1"
"19178665132139","3","0.29209262","0.009576807","9.452309","lay down","1"
"19178685151670","3","0.28491","0.019153614","9.416395","lay down","1"
"19178705171201","3","0.2801216","-0.009576807","9.5385","lay down","1"
"19178725160215","3","0.29688102","0.0047884034","9.454702","lay down","1"
"19178745149229","3","0.29448682","-0.0023942017","9.43076","lay down","1"
"19178765168760","3","0.31124622","-0.009576807","9.512163","lay down","1"
"19178785157774","3","0.30645782","0.0","9.476251","lay down","1"
"19178805146787","3","0.30645782","0.007182605","9.481039","lay down","1"
"19178825135801","3","0.33518824","-0.016759412","9.497798","lay down","1"
"19178845155332","3","0.33758244","-0.007182605","9.445126","lay down","1"
"19178865144346","3","0.30645782","-0.007182605","9.452309","lay down","1"
"19178885133360","3","0.32561144","-0.019153614","9.543288","lay down","1"
"19178905183408","3","0.320823","-0.021547815","9.478644","lay down","1"
"19178925172422","3","0.30645782","-0.007182605","9.469068","lay down","1"
"19178945161436","3","0.30406362","0.0047884034","9.483433","lay down","1"
"19178965180967","3","0.30406362","-0.02633622","9.512163","lay down","1"
"19178985169981","3","0.29688102","0.007182605","9.440337","lay down","1"
"19179005158994","3","0.30166942","-0.007182605","9.497798","lay down","1"
"19179025148008","3","0.30885202","0.007182605","9.500193","lay down","1"
"19179045137022","3","0.2896984","0.033518825","9.406818","lay down","1"
"19179065126035","3","0.30406362","0.016759412","9.624691","lay down","1"
"19179085115049","3","0.29927522","-0.019153614","9.49301","lay down","1"
"19179105134580","3","0.3184288","0.0","9.40203","lay down","1"
"19179125123594","3","0.33039984","-0.04070143","9.636662","lay down","1"
"19179145143125","3","0.31364042","0.01436521","9.576807","lay down","1"
"19179165132139","3","0.29927522","-0.019153614","9.454702","lay down","1"
"19179185121153","3","0.32561144","-0.0047884034","9.44752","lay down","1"
"19179205110166","3","0.30166942","-0.019153614","9.44752","lay down","1"
"19179225099180","3","0.30885202","0.0023942017","9.512163","lay down","1"
"19179245088194","3","0.31364042","0.0023942017","9.421184","lay down","1"
"19179265107725","3","0.31364042","-0.016759412","9.440337","lay down","1"
"19179285096739","3","0.2873042","-0.031124622","9.44752","lay down","1"
"19179305116270","3","0.30645782","-0.01436521","9.504981","lay down","1"
"19179325135801","3","0.29688102","-0.019153614","9.519346","lay down","1"
"19179345155332","3","0.30406362","-0.033518825","9.483433","lay down","1"
"19179365144346","3","0.29209262","-0.062249243","9.502586","lay down","1"
"19179385133360","3","0.2896984","-0.009576807","9.435549","lay down","1"
"19179405122373","3","0.31124622","-0.035913024","9.454702","lay down","1"
"19179425111387","3","0.30885202","-0.033518825","9.428367","lay down","1"
"19179445130918","3","0.3184288","-0.031124622","9.55047","lay down","1"
"19179465119932","3","0.30885202","-0.016759412","9.5385","lay down","1"
"19179485139463","3","0.31124622","-0.038307227","9.528923","lay down","1"
"19179505128477","3","0.30166942","-0.021547815","9.478644","lay down","1"
"19179525117490","3","0.30885202","-0.021547815","9.507375","lay down","1"
"19179545106504","3","0.3184288","-0.031124622","9.471462","lay down","1"
"19179565095518","3","0.29688102","-0.033518825","9.464279","lay down","1"
"19179585115049","3","0.32321724","-0.016759412","9.507375","lay down","1"
"19179605104063","3","0.31364042","-0.045489833","9.466674","lay down","1"
"19179625093076","3","0.30166942","-0.02633622","9.512163","lay down","1"
"19179645112608","3","0.33039984","-0.011971008","9.500193","lay down","1"
"19179665101621","3","0.33279404","-0.055066638","9.375694","lay down","1"
"19179685090635","3","0.39743748","0.035913024","9.404425","lay down","1"
"19179705079649","3","0.32561144","-0.12210429","9.600749","lay down","1"
"19179725068662","3","0.18195933","-0.062249243","9.564836","lay down","1"
"19179745057676","3","0.33279404","0.0","9.64145","lay down","1"
"19179765077207","3","0.40701428","0.011971008","9.349358","lay down","1"
"19179785066221","3","0.23223756","-0.033518825","9.284714","lay down","1"
"19179805055235","3","0.320823","-0.05267244","9.622296","lay down","1"
"19179825044248","3","0.2896984","-0.047884032","9.605537","lay down","1"
"19179845033262","3","0.320823","0.02873042","9.404425","lay down","1"
"19179865022276","3","0.34476504","-0.023942016","9.509769","lay down","1"
"19179885011289","3","0.33997664","-0.02873042","9.457097","lay down","1"
"19179904969785","3","0.3184288","-0.05267244","9.504981","lay down","1"
"19179924989317","3","0.30885202","-0.04070143","9.459491","lay down","1"
"19179944978330","3","0.29209262","-0.023942016","9.337387","lay down","1"
"19179964967344","3","0.33279404","-0.02633622","9.466674","lay down","1"
"19179984956358","3","0.30406362","-0.033518825","9.44752","lay down","1"
"19180004945371","3","0.30406362","-0.031124622","9.526528","lay down","1"
"19180024934385","3","0.3184288","0.0","9.509769","lay down","1"
"19180044953916","3","0.30645782","-0.02633622","9.509769","lay down","1"
"19180064973448","3","0.31364042","-0.011971008","9.545682","lay down","1"
"19180084962461","3","0.30406362","0.0047884034","9.504981","lay down","1"
"19180105012510","3","0.29448682","0.033518825","9.533711","lay down","1"
"19180124971006","3","0.2896984","-0.074220255","9.464279","lay down","1"
"19180145021055","3","0.32800564","-0.06703765","9.478644","lay down","1"
"19180165010069","3","0.31364042","0.0023942017","9.394848","lay down","1"
"19180185029600","3","0.35913026","0.01436521","9.514558","lay down","1"
"19180205018614","3","0.35194764","-0.019153614","9.552865","lay down","1"
"19180225038145","3","0.33997664","-0.0023942017","9.543288","lay down","1"
"19180245057676","3","0.31364042","0.011971008","9.394848","lay down","1"
"19180265046690","3","0.31364042","-0.019153614","9.507375","lay down","1"
"19180285035703","3","0.320823","-0.01436521","9.483433","lay down","1"
"19180305024717","3","0.28491","-0.02633622","9.433155","lay down","1"
"19180325013731","3","0.34237084","-0.06464344","9.495404","lay down","1"
"19180345002744","3","0.32561144","-0.045489833","9.416395","lay down","1"
"19180365022276","3","0.34476504","-0.02873042","9.488221","lay down","1"
"19180385011289","3","0.2825158","-0.045489833","9.619903","lay down","1"
"19180405000303","3","0.30406362","-0.007182605","9.440337","lay down","1"
"19180425019834","3","0.33279404","0.0","9.41879","lay down","1"
"19180445039365","3","0.32561144","-0.031124622","9.5385","lay down","1"
"19180465058897","3","0.34237084","-0.0023942017","9.502586","lay down","1"
"19180485047910","3","0.33518824","-0.009576807","9.497798","lay down","1"
"19180505067442","3","0.32800564","0.007182605","9.500193","lay down","1"
"19180525056455","3","0.32321724","-0.0023942017","9.497798","lay down","1"
"19180545045469","3","0.33039984","-0.021547815","9.483433","lay down","1"
"19180565034483","3","0.3184288","-0.031124622","9.476251","lay down","1"
"19180585023496","3","0.31603462","-0.02873042","9.483433","lay down","1"
"19180605012510","3","0.31364042","-0.033518825","9.476251","lay down","1"
"19180625001524","3","0.3184288","-0.019153614","9.478644","lay down","1"
"19180645021055","3","0.31124622","-0.035913024","9.485827","lay down","1"
"19180665010069","3","0.31124622","-0.035913024","9.49301","lay down","1"
"19180684999082","3","0.31364042","-0.038307227","9.507375","lay down","1"
"19180704957578","3","0.320823","-0.02873042","9.497798","lay down","1"
"19180724977110","3","0.32321724","-0.016759412","9.495404","lay down","1"
"19180744966123","3","0.320823","-0.02633622","9.497798","lay down","1"
"19180764955137","3","0.32321724","-0.011971008","9.478644","lay down","1"
"19180784944151","3","0.32800564","-0.016759412","9.478644","lay down","1"
"19180804933164","3","0.32321724","-0.019153614","9.483433","lay down","1"
"19180824922178","3","0.32321724","-0.021547815","9.476251","lay down","1"
"19180844941709","3","0.320823","-0.011971008","9.483433","lay down","1"
"19180864961240","3","0.33279404","-0.009576807","9.481039","lay down","1"
"19180884950254","3","0.32561144","-0.007182605","9.490616","lay down","1"
"19180904939268","3","0.33039984","-0.016759412","9.488221","lay down","1"
"19180924928282","3","0.33279404","-0.016759412","9.495404","lay down","1"
"19180944917295","3","0.33039984","-0.019153614","9.476251","lay down","1"
"19180964936826","3","0.31364042","-0.016759412","9.485827","lay down","1"
"19180984925840","3","0.32321724","-0.016759412","9.485827","lay down","1"
"19181004914854","3","0.31603462","-0.016759412","9.485827","lay down","1"
"19181024934385","3","0.31603462","-0.009576807","9.488221","lay down","1"
"19181044923399","3","0.32561144","-0.019153614","9.497798","lay down","1"
"19181064942930","3","0.3184288","-0.02633622","9.481039","lay down","1"
"19181084931944","3","0.32800564","-0.021547815","9.490616","lay down","1"
"19181104920957","3","0.320823","-0.01436521","9.497798","lay down","1"
"19181124909971","3","0.320823","-0.011971008","9.485827","lay down","1"
"19181144929502","3","0.32561144","-0.016759412","9.488221","lay down","1"
"19181164918516","3","0.320823","-0.009576807","9.485827","lay down","1"
"19181184907530","3","0.320823","-0.01436521","9.478644","lay down","1"
"19181204896543","3","0.3184288","-0.02633622","9.483433","lay down","1"
"19181224885557","3","0.320823","-0.023942016","9.473856","lay down","1"
"19181244905088","3","0.320823","-0.01436521","9.490616","lay down","1"
"19181264894102","3","0.3184288","-0.01436521","9.488221","lay down","1"
"19181284913633","3","0.32561144","-0.011971008","9.481039","lay down","1"
"19181304872129","3","0.31603462","-0.02633622","9.49301","lay down","1"
"19181324861143","3","0.32561144","-0.011971008","9.49301","lay down","1"
"19181344850157","3","0.33518824","-0.01436521","9.473856","lay down","1"
"19181364839170","3","0.32321724","-0.016759412","9.478644","lay down","1"
"19181384828184","3","0.3184288","-0.019153614","9.473856","lay down","1"
"19181404847715","3","0.3184288","-0.021547815","9.49301","lay down","1"
"19181424836729","3","0.3184288","-0.016759412","9.483433","lay down","1"
"19181444825742","3","0.32321724","-0.011971008","9.481039","lay down","1"
"19181464814756","3","0.320823","-0.019153614","9.481039","lay down","1"
"19181484834287","3","0.31364042","-0.01436521","9.483433","lay down","1"
"19181504823301","3","0.33279404","-0.011971008","9.481039","lay down","1"
"19181524812315","3","0.32321724","0.0023942017","9.488221","lay down","1"
"19181544831846","3","0.33039984","-0.01436521","9.483433","lay down","1"
"19181564820860","3","0.32800564","-0.011971008","9.476251","lay down","1"
"19181584809873","3","0.3184288","-0.011971008","9.488221","lay down","1"
"19181604829405","3","0.33039984","-0.019153614","9.483433","lay down","1"
"19181624818418","3","0.32321724","-0.011971008","9.485827","lay down","1"
"19181644807432","3","0.33518824","-0.011971008","9.488221","lay down","1"
"19181664796446","3","0.32800564","-0.01436521","9.485827","lay down","1"
"19181684785459","3","0.320823","-0.016759412","9.478644","lay down","1"
"19181704774473","3","0.32800564","-0.019153614","9.481039","lay down","1"
"19181724763487","3","0.31603462","-0.011971008","9.488221","lay down","1"
"19181744752500","3","0.32800564","-0.019153614","9.473856","lay down","1"
"19181764741514","3","0.3184288","-0.011971008","9.488221","lay down","1"
"19181784761045","3","0.3184288","-0.016759412","9.488221","sit up","1"
"19181804750059","3","0.3184288","-0.007182605","9.488221","sit up","1"
"19181824739073","3","0.31603462","-0.011971008","9.49301","sit up","1"
"19181844758604","3","0.3184288","-0.016759412","9.502586","sit up","1"
"19181864747617","3","0.32800564","-0.016759412","9.473856","sit up","1"
"19181884767149","3","0.3184288","-0.01436521","9.476251","sit up","1"
"19181904756162","3","0.320823","-0.02633622","9.476251","sit up","1"
"19181924745176","3","0.320823","-0.021547815","9.483433","sit up","1"
"19181944734190","3","0.32561144","-0.009576807","9.485827","sit up","1"
"19181964723203","3","0.32321724","-0.016759412","9.495404","sit up","1"
"19181984712217","3","0.32800564","-0.031124622","9.485827","sit up","1"
"19182004701231","3","0.31603462","-0.01436521","9.488221","sit up","1"
"19182024720762","3","0.32561144","-0.01436521","9.476251","sit up","1"
"19182044709776","3","0.30645782","-0.011971008","9.481039","sit up","1"
"19182064698789","3","0.320823","-0.019153614","9.476251","sit up","1"
"19182084687803","3","0.320823","-0.011971008","9.469068","sit up","1"
"19182104676817","3","0.3184288","-0.023942016","9.469068","sit up","1"
"19182124665830","3","0.32800564","-0.016759412","9.483433","sit up","1"
"19182144654844","3","0.320823","-0.016759412","9.488221","sit up","1"
"19182164674375","3","0.31603462","-0.021547815","9.469068","sit up","1"
"19182184663389","3","0.33518824","-0.016759412","9.495404","sit up","1"
"19182204652403","3","0.320823","-0.01436521","9.476251","sit up","1"
"19182224641416","3","0.30885202","-0.04070143","9.516952","sit up","1"
"19182244630430","3","0.37588966","-0.007182605","9.433155","sit up","1"
"19182264619444","3","0.34715924","-0.021547815","9.497798","sit up","1"
"19182284608457","3","0.30645782","-0.023942016","9.552865","sit up","1"
"19182304566953","3","0.33279404","0.016759412","9.471462","sit up","1"
"19182324586485","3","0.30166942","-0.01436521","9.380483","sit up","1"
"19182344606016","3","0.30166942","-0.045489833","9.466674","sit up","1"
"19182364595030","3","0.31364042","-0.033518825","9.579201","sit up","1"
"19182384584043","3","0.31364042","-0.011971008","9.464279","sit up","1"
"19182404573057","3","0.32321724","0.007182605","9.461885","sit up","1"
"19182424562071","3","0.33518824","-0.016759412","9.473856","sit up","1"
"19182444551084","3","0.31364042","-0.023942016","9.457097","sit up","1"
"19182464540098","3","0.31603462","-0.02873042","9.476251","sit up","1"
"19182484559629","3","0.33279404","-0.019153614","9.497798","sit up","1"
"19182504548643","3","0.320823","-0.031124622","9.490616","sit up","1"
"19182524537657","3","0.32321724","-0.031124622","9.473856","sit up","1"
"19182544557188","3","0.3184288","-0.019153614","9.473856","sit up","1"
"19182564546201","3","0.31364042","-0.038307227","9.483433","sit up","1"
"19182584535215","3","0.3184288","-0.038307227","9.516952","sit up","1"
"19182604554746","3","0.32800564","-0.031124622","9.452309","sit up","1"
"19182624513242","3","0.320823","-0.055066638","9.528923","sit up","1"
"19182644532774","3","0.31364042","-0.035913024","9.457097","sit up","1"
"19182664521787","3","0.31603462","-0.016759412","9.49301","sit up","1"
"19182684510801","3","0.2896984","-0.016759412","9.49301","sit up","1"
"19182704499815","3","0.29448682","-0.0047884034","9.43076","sit up","1"
"19182724488828","3","0.31124622","-0.009576807","9.512163","sit up","1"
"19182744477842","3","0.29927522","-0.007182605","9.440337","sit up","1"
"19182764466856","3","0.3184288","-0.009576807","9.485827","sit up","1"
"19182784486387","3","0.33518824","-0.050278235","9.490616","sit up","1"
"19182804505918","3","0.34715924","-0.023942016","9.478644","sit up","1"
"19182824525449","3","0.35194764","-0.088585466","9.52174","sit up","1"
"19182844514463","3","0.34955344","-0.04309563","9.502586","sit up","1"
"19182864503477","3","0.31364042","-0.059855044","9.507375","sit up","1"
"19182884492490","3","0.30166942","-0.059855044","9.483433","sit up","1"
"19182904481504","3","0.29688102","-0.031124622","9.440337","sit up","1"
"19182924470518","3","0.32800564","-0.045489833","9.409213","sit up","1"
"19182944459532","3","0.32561144","-0.04309563","9.495404","sit up","1"
"19182964448545","3","0.2873042","-0.04309563","9.52174","sit up","1"
"19182984468076","3","0.32800564","-0.035913024","9.500193","sit up","1"
"19183004457090","3","0.2896984","-0.047884032","9.531317","sit up","1"
"19183024446104","3","0.28491","-0.045489833","9.485827","sit up","1"
"19183044435117","3","0.2873042","-0.050278235","9.481039","sit up","1"
"19183064393614","3","0.29927522","-0.035913024","9.507375","sit up","1"
"19183084413145","3","0.3184288","-0.031124622","9.476251","sit up","1"
"19183104402158","3","0.3184288","-0.023942016","9.476251","sit up","1"
"19183124421690","3","0.31364042","-0.05746084","9.507375","sit up","1"
"19183144410703","3","0.320823","-0.04070143","9.514558","sit up","1"
"19183164399717","3","0.32561144","-0.038307227","9.466674","sit up","1"
"19183184388731","3","0.31124622","-0.02873042","9.44752","sit up","1"
"19183204408262","3","0.320823","-0.045489833","9.52174","sit up","1"
