"Timestamp","Accuracy","Acceleration X","Acceleration Y","Acceleration Z","Label","Cycle"
"88116636834351","3","-0.61672723","-0.17339766","10.0580225","sit down","0"
"88116657140601","3","-0.5263987","-0.13575123","10.048666","none","0"
"88116676818726","3","-0.49202758","-0.14382447","10.057409","none","0"
"88116697140601","3","-0.49763003","-0.18792568","10.095257","none","0"
"88116716945288","3","-0.48047796","-0.1647498","10.015425","none","0"
"88116737140601","3","-0.559659","-0.15183069","10.144166","none","0"
"88116756946851","3","-0.43965203","-0.22803333","9.785994","none","0"
"88116777140601","3","-0.25288516","-0.22611798","9.739469","none","0"
"88116796946851","3","-0.43103293","-0.17450857","9.93746","none","0"
"88116817140601","3","-0.5083082","-0.14805743","10.039318","none","0"
"88116836946851","3","-0.52996135","-0.16452955","9.997066","none","0"
"88116857140601","3","-0.5585673","-0.16722062","10.008998","none","0"
"88116876946851","3","-0.47331452","-0.16027744","9.896184","none","0"
"88116897140601","3","-0.5185266","-0.15904203","10.046558","none","0"
"88116917787476","3","-0.48310202","-0.16869545","9.982002","none","0"
"88116937140601","3","-0.47182053","-0.16652152","10.007054","none","0"
"88116956946851","3","-0.4649827","-0.17756356","9.934366","none","0"
"88116977140601","3","-0.46727154","-0.20133321","9.985573","none","0"
"88116996818726","3","-0.41750088","-0.21701044","9.9575815","none","0"
"88117017140601","3","-0.43064025","-0.23305158","9.966392","none","0"
"88117036818726","3","-0.36852512","-0.2190982","9.888695","none","0"
"88117057140601","3","-0.4177882","-0.23386562","9.974091","none","0"
"88117076818726","3","-0.45952392","-0.25424507","9.938245","none","0"
"88117097140601","3","-0.417635","-0.24097162","10.050763","none","0"
"88117116818726","3","-0.315958","-0.25251165","9.763258","none","0"
"88117137787476","3","-0.4348445","-0.2344977","10.042536","none","0"
"88117156818726","3","-0.3871903","-0.25900474","9.916707","none","0"
"88117177787476","3","-0.40986815","-0.21541111","9.98408","none","0"
"88117196818726","3","-0.40571186","-0.2681506","9.998617","none","0"
"88117217787476","3","-0.37517142","-0.20969376","9.975422","none","0"
"88117236818726","3","-0.40843168","-0.2252082","9.932039","none","0"
"88117257787476","3","-0.39629784","-0.26308447","9.991961","none","0"
"88117276818726","3","-0.35334584","-0.25556666","9.96664","none","0"
"88117297787476","3","-0.41025126","-0.25723302","9.969504","none","0"
"88117316818726","3","-0.47590986","-0.24917895","9.920691","none","0"
"88117337787476","3","-0.36880282","-0.30173644","9.9284","none","0"
"88117356818726","3","-0.42092937","-0.24138342","9.917415","none","0"
"88117377787476","3","-0.42504743","-0.24077049","9.946855","none","0"
"88117396818726","3","-0.36703113","-0.21714452","10.003865","none","0"
"88117417787476","3","-0.35194767","-0.23118411","9.976428","none","0"
"88117436728101","3","-0.4269149","-0.2537758","9.928275","none","0"
"88117457140601","3","-0.4136606","-0.2407322","10.041914","none","0"
"88117476818726","3","-0.2904837","-0.25561455","9.906709","none","0"
"88117497140601","3","-0.26404214","-0.26537332","10.0370865","none","0"
"88117516818726","3","-0.4559805","-0.22774605","10.119687","none","0"
"88117537142163","3","-0.4742243","-0.20371783","9.895848","none","0"
"88117556946851","3","-0.35809594","-0.26543078","9.961843","none","0"
"88117577142163","3","-0.37697184","-0.25988582","9.916381","none","0"
"88117596946851","3","-0.39633614","-0.24485022","10.031705","none","0"
"88117617787476","3","-0.3564583","-0.25035688","9.962541","none","0"
"88117636945288","3","-0.41508752","-0.22132957","9.982126","none","0"
"88117657140601","3","-0.3643879","-0.24722527","9.956633","none","0"
"88117676946851","3","-0.3951678","-0.24298275","9.982805","none","0"
"88117697140601","3","-0.41478106","-0.25283727","10.008424","none","0"
"88117716946851","3","-0.37898296","-0.24106738","9.934683","none","0"
"88117737140601","3","-0.39238092","-0.24549186","9.929741","none","0"
"88117756946851","3","-0.4274991","-0.24371059","9.973401","none","0"
"88117777140601","3","-0.38784152","-0.23875937","9.949354","none","0"
"88117796946851","3","-0.3537002","-0.23532128","9.977482","none","0"
"88117817140601","3","-0.4005595","-0.23675781","9.982193","none","0"
"88117836818726","3","-0.408537","-0.24742638","9.989481","none","0"
"88117857140601","3","-0.37433824","-0.25232014","9.956498","none","0"
"88117876818726","3","-0.3658532","-0.23216096","9.953932","none","0"
"88117897140601","3","-0.37984487","-0.2453099","10.007514","none","0"
"88117917798413","3","-0.3721164","-0.21781489","9.966764","none","0"
"88117937140601","3","-0.50216943","-0.2245378","9.946884","none","0"
"88117956818726","3","-0.70626074","-0.23197898","9.732439","none","0"
"88117977798413","3","-0.2868254","-0.30555758","9.802513","none","0"
"88117996818726","3","-0.3189364","-0.2813187","10.053129","none","0"
"88118017787476","3","-0.41509712","-0.264837","10.052669","none","0"
"88118036818726","3","-0.39319494","-0.2335496","9.886482","none","0"
"88118057787476","3","-0.4225766","-0.2132276","9.842564","none","0"
"88118076818726","3","-0.29480284","-0.27662608","9.964553","none","0"
"88118097787476","3","-0.36552757","-0.21656992","10.191552","none","0"
"88118116818726","3","-0.29976365","-0.25730965","9.956039","none","0"
"88118137787476","3","-0.4350073","-0.18955374","9.913632","none","0"
"88118156818726","3","-0.3380038","-0.20816147","9.961229","none","0"
"88118177787476","3","-0.48904923","-0.27456704","9.994518","none","0"
"88118196818726","3","-0.40440938","-0.28451738","9.895868","none","0"
"88118217787476","3","-0.28323406","-0.22700863","9.890332","none","0"
"88118236818726","3","-0.4922766","-0.21951956","9.957733","none","0"
"88118257787476","3","-0.42949107","-0.26465505","9.944901","none","0"
"88118276818726","3","-0.3543131","-0.23483288","9.954583","none","0"
"88118297140601","3","-0.37537253","-0.26965415","9.957064","none","0"
"88118317142163","3","-0.56371003","-0.23316652","9.8776045","none","0"
"88118337140601","3","-0.3221255","-0.24738808","9.906737","none","0"
"88118356818726","3","-0.35973358","-0.23859656","9.984607","none","0"
"88118377140601","3","-0.27159825","-0.23924778","10.049308","none","0"
"88118396946851","3","-0.32413658","-0.23029347","10.052295","none","0"
"88118417140601","3","-0.40423703","-0.24148875","10.084291","none","0"
"88118436946851","3","-0.4195599","-0.22903891","9.938561","none","0"
"88118457140601","3","-0.3643113","-0.23460305","9.902274","none","0"
"88118476946851","3","-0.37392643","-0.2363939","9.972176","none","0"
"88118497140601","3","-0.38427895","-0.2670301","10.002602","none","0"
"88118516945288","3","-0.39368337","-0.24103865","9.986215","none","0"
"88118537140601","3","-0.4356585","-0.24534822","9.865682","none","0"
"88118556946851","3","-0.38945043","-0.26372612","9.890619","none","0"
"88118577140601","3","-0.35320222","-0.25669673","9.921342","none","0"
"88118596946851","3","-0.35980064","-0.2684475","9.967148","none","0"
"88118617140601","3","-0.43494982","-0.28604007","9.928026","none","0"
"88118636946851","3","-0.2690604","-0.23264937","9.798587","none","0"
"88118657140601","3","-0.44567588","-0.21376391","10.005034","none","0"
"88118676946851","3","-0.3766271","-0.27837864","10.008386","none","0"
"88118697140601","3","-0.3914041","-0.22438458","9.819789","none","0"
"88118716818726","3","-0.35444722","-0.23047544","9.87997","none","0"
"88118737140601","3","-0.37553534","-0.25368962","9.946233","none","0"
"88118756817163","3","-0.40886262","-0.24746469","9.996836","none","0"
"88118777140601","3","-0.37151307","-0.25062504","9.927816","none","0"
"88118796818726","3","-0.3621661","-0.2510943","9.918498","none","0"
"88118817787476","3","-0.37684736","-0.26642677","9.953434","none","0"
"88118836818726","3","-0.37786248","-0.2611212","9.967253","none","0"
"88118857787476","3","-0.4119272","-0.23506273","9.946884","none","0"
"88118876818726","3","-0.3393829","-0.23897962","9.891434","none","0"
"88118897787476","3","-0.38963237","-0.23586717","9.956537","none","0"
"88118917798413","3","-0.3827275","-0.24628675","9.947468","none","0"
"88118937799976","3","-0.3765696","-0.24143131","9.96145","none","0"
"88118956818726","3","-0.37651214","-0.25164017","9.942938","none","0"
"88118977787476","3","-0.3657574","-0.2477041","9.94967","none","0"
"88118996818726","3","-0.36572868","-0.25277025","9.9638815","none","0"
"88119017787476","3","-0.37605247","-0.24765623","9.946816","none","0"
"88119036818726","3","-0.38145378","-0.23156719","9.970863","none","0"
"88119057787476","3","-0.3788106","-0.2490736","9.931397","none","0"
"88119076818726","3","-0.3618022","-0.25274152","9.9493065","none","0"
"88119097787476","3","-0.3793373","-0.24925555","9.934663","none","0"
"88119116818726","3","-0.49618393","-0.23418166","9.852293","none","0"
"88119137142163","3","-0.35433227","-0.27410737","9.845704","none","0"
"88119156818726","3","-0.4031261","-0.23728454","9.882317","none","0"
"88119177140601","3","-0.35670733","-0.2553081","9.976609","none","0"
"88119196818726","3","-0.27684635","-0.2453099","9.94811","none","0"
"88119217140601","3","-0.51507896","-0.21686679","9.994604","none","0"
"88119236818726","3","-0.22312044","-0.29019642","9.958548","none","0"
"88119257140601","3","-0.31987494","-0.22818656","10.069351","none","0"
"88119276946851","3","-0.38348407","-0.24929385","9.6765585","none","0"
"88119297140601","3","-0.33222902","-0.2827648","9.94809","none","0"
"88119316945288","3","-0.33158737","-0.28266904","9.857397","none","0"
"88119337140601","3","-0.41933006","-0.23025517","9.675821","none","0"
"88119356945288","3","-0.39803126","-0.29029217","9.815192","none","0"
"88119377140601","3","-0.38224867","-0.26491365","9.977366","none","0"
"88119396946851","3","-0.42663717","-0.23404758","9.909965","none","0"
"88119417142163","3","-0.3605476","-0.21474074","9.815902","none","0"
"88119436873413","3","-0.36925292","-0.20931068","9.751909","none","0"
"88119457140601","3","-0.33578202","-0.25050053","9.813948","none","0"
"88119476946851","3","-0.4876893","-0.18018763","9.705375","none","0"
"88119497140601","3","-0.4579629","-0.26967332","9.979119","none","0"
"88119516946851","3","-0.30725268","-0.33315796","9.787362","none","0"
"88119537140601","3","-0.43345585","-0.23841462","9.758594","none","0"
"88119556818726","3","-0.38004598","-0.2738871","9.962676","none","0"
"88119577140601","3","-0.35724363","-0.22731508","9.832182","none","0"
"88119596818726","3","-0.39032194","-0.20731871","9.881023","none","0"
"88119617142163","3","-0.3204687","-0.23947763","9.854812","none","0"
"88119636818726","3","-0.36784515","-0.24562594","9.887402","none","0"
"88119657140601","3","-0.3531256","-0.23950636","9.846834","none","0"
"88119676818726","3","-0.36627457","-0.25235844","9.820584","none","0"
"88119697787476","3","-0.37753686","-0.2463825","9.836214","none","0"
"88119717140601","3","-0.4160165","-0.2563711","9.799094","none","0"
"88119737798413","3","-0.36267367","-0.24611436","9.805999","none","0"
"88119756818726","3","-0.37799656","-0.24728273","9.785438","none","0"
"88119777787476","3","-0.38944086","-0.25496334","9.813325","none","0"
"88119796818726","3","-0.3429263","-0.23909456","9.798356","none","0"
"88119817787476","3","-0.39287895","-0.24710077","9.8176155","none","0"
"88119836818726","3","-0.35599864","-0.24475445","9.781329","none","0"
"88119857787476","3","-0.3651445","-0.23363577","9.7979355","none","0"
"88119876818726","3","-0.3478296","-0.25001213","9.7701435","none","0"
"88119897787476","3","-0.41148666","-0.23892218","9.810136","none","0"
"88119917798413","3","-0.3397085","-0.2422166","9.77113","none","0"
"88119937799976","3","-0.37733576","-0.24685177","9.781109","none","0"
"88119956817163","3","-0.39608717","-0.24520455","9.779873","none","0"
"88119977787476","3","-0.3658149","-0.24103865","9.764398","none","0"
"88119996818726","3","-0.38414487","-0.24695712","9.759638","none","0"
"88120017142163","3","-0.3794714","-0.23730369","9.759628","none","0"
"88120036818726","3","-0.38048655","-0.24938963","9.779654","none","0"
"88120057140601","3","-0.37060326","-0.23667163","9.761074","none","0"
"88120076818726","3","-0.3936355","-0.24111527","9.745033","none","0"
"88120097140601","3","-0.39720765","-0.23308033","9.770575","none","0"
"88120116946851","3","-0.4046967","-0.2415941","9.756094","none","0"
"88120137140601","3","-0.37539166","-0.24864264","9.74736","none","0"
"88120156946851","3","-0.40295374","-0.23631729","9.771829","none","0"
"88120177140601","3","-0.3763302","-0.2401863","9.732258","none","0"
"88120196946851","3","-0.38952705","-0.24404576","9.746067","none","0"
"88120217140601","3","-0.39493793","-0.23567565","9.765853","none","0"
"88120236946851","3","-0.35208172","-0.23416251","9.778245","none","0"
"88120257140601","3","-0.41235816","-0.24513753","9.752589","none","0"
"88120276946851","3","-0.3508559","-0.22278526","9.700262","none","0"
"88120297140601","3","-0.3568031","-0.23272598","9.774769","none","0"
"88120316946851","3","-0.38106117","-0.2518796","9.754141","none","0"
"88120337140601","3","-0.48343718","-0.2268554","9.723303","none","0"
"88120356946851","3","-0.36139995","-0.26914656","9.655184","none","0"
"88120377140601","3","-0.3983473","-0.2616575","9.646076","none","0"
"88120396946851","3","-0.38658696","-0.29621065","9.755509","none","0"
"88120417143726","3","-0.42919418","-0.24676558","9.722212","none","0"
"88120437787476","3","-0.38991013","-0.26982653","9.69804","none","0"
"88120457140601","3","-0.3833883","-0.25240633","9.704235","none","0"
"88120476818726","3","-0.3627024","-0.25050053","9.696718","none","0"
"88120497140601","3","-0.37599504","-0.23874022","9.747839","none","0"
"88120516818726","3","-0.36375585","-0.2131031","9.777384","none","0"
"88120537787476","3","-0.34992695","-0.22582111","9.749343","none","0"
"88120556818726","3","-0.35963783","-0.24082796","9.769885","none","0"
"88120577787476","3","-0.4009043","-0.23803154","9.722412","none","0"
"88120596818726","3","-0.4266563","-0.23499568","9.691862","sit down","0"
"88120617787476","3","-0.3283983","-0.24612392","9.664943","sit down","0"
"88120636818726","3","-0.39919004","-0.18131769","9.818563","sit down","0"
"88120657787476","3","-0.3866923","-0.2594357","9.754141","sit down","0"
"88120676818726","3","-0.38216248","-0.282171","9.739421","sit down","0"
"88120697787476","3","-0.36436877","-0.22923045","9.713209","sit down","0"
"88120716818726","3","-0.34128866","-0.25060588","9.72746","sit down","0"
"88120737787476","3","-0.3747213","-0.23840503","9.747379","sit down","0"
"88120756818726","3","-0.36158192","-0.23674825","9.736108","sit down","0"
"88120777798413","3","-0.3577129","-0.224375","9.741011","sit down","0"
"88120796818726","3","-0.34484166","-0.24146004","9.738952","sit down","0"
"88120817787476","3","-0.37048835","-0.24395958","9.752876","sit down","0"
"88120836818726","3","-0.38744888","-0.23363577","9.774491","sit down","0"
"88120857140601","3","-0.35487816","-0.2349095","9.765949","sit down","0"
"88120876818726","3","-0.38459498","-0.25435042","9.752178","sit down","0"
"88120897142163","3","-0.3825264","-0.22509326","9.739249","sit down","0"
"88120917798413","3","-0.38550478","-0.23404758","9.740522","sit down","0"
"88120937140601","3","-0.37594712","-0.24794352","9.752101","sit down","0"
"88120956946851","3","-0.35449508","-0.24333708","9.732411","sit down","0"
"88120977140601","3","-0.37090015","-0.23747608","9.725286","sit down","0"
"88120996946851","3","-0.40331763","-0.24116315","9.76842","sit down","0"
"88121017140601","3","-0.34487998","-0.23618321","9.725046","sit down","0"
"88121036946851","3","-0.36767277","-0.22967097","9.747274","sit down","0"
"88121057140601","3","-0.37542042","-0.23951595","9.759532","sit down","0"
"88121076946851","3","-0.39749494","-0.23587675","9.752714","sit down","0"
"88121097140601","3","-0.36380374","-0.23915203","9.7310705","sit down","0"
"88121117787476","3","-0.35889083","-0.23467007","9.75958","sit down","0"
"88121137140601","3","-0.34688154","-0.23511061","9.760748","sit down","0"
"88121156945288","3","-0.35016635","-0.23417208","9.763842","sit down","0"
"88121177140601","3","-0.31547916","-0.24474487","9.7237625","sit down","0"
"88121196946851","3","-0.31754777","-0.24358608","9.71907","sit down","0"
"88121217140601","3","-0.42987412","-0.2260701","9.683569","sit down","0"
"88121236946851","3","-0.24886289","-0.23005405","9.724998","sit down","0"
"88121257140601","3","-0.08816408","-0.21495143","10.075576","sit down","0"
"88121276818726","3","-0.43769836","-0.2010076","9.7664175","sit down","0"
"88121297142163","3","-0.41479066","-0.21681891","9.764704","sit down","0"
"88121316818726","3","-0.036631286","-0.31385112","9.553764","sit down","0"
"88121337140601","3","-0.564457","-0.20496282","9.791739","sit down","0"
"88121356818726","3","-0.5417983","-0.17744866","9.788464","sit down","0"
"88121377787476","3","-0.42477927","-0.24782862","9.81004","sit down","0"
"88121396818726","3","-0.28349265","-0.30311552","9.701228","sit down","0"
"88121417787476","3","-0.33723766","-0.27242184","9.62355","sit down","0"
"88121436806226","3","-0.48665503","-0.24037786","9.9166975","sit down","0"
"88121457787476","3","-0.3165805","-0.2594644","9.959784","sit down","0"
"88121476818726","3","-0.366332","-0.2305712","9.789105","sit down","0"
"88121497787476","3","-0.34647927","-0.23212264","9.687064","sit down","0"
"88121516818726","3","-0.41305724","-0.2257349","9.768918","sit down","0"
"88121537787476","3","-0.3347477","-0.26184905","9.740484","sit down","0"
"88121556818726","3","-0.3638995","-0.25444618","9.735523","sit down","0"
"88121577787476","3","-0.37390727","-0.240895","9.781109","sit down","0"
"88121596818726","3","-0.32796732","-0.25381413","9.707865","sit down","0"
"88121617787476","3","-0.35565388","-0.24422772","9.769435","sit down","0"
"88121636818726","3","-0.201994","-0.2887599","9.40995","sit down","0"
"88121657787476","3","-0.46153507","-0.20032765","9.916065","sit down","0"
"88121676818726","3","-0.32587957","-0.32268095","9.883131","sit down","0"
"88121697140601","3","-0.42853338","-0.20641848","10.046827","sit down","0"
"88121716818726","3","-0.1558721","-0.23338678","9.623101","sit down","0"
"88121737140601","3","-0.5234395","-0.21515255","9.232597","sit down","0"
"88121756818726","3","-0.55081004","-0.38355112","10.26537","sit down","0"
"88121777140601","3","-0.4477732","-0.14804785","10.084349","sit down","0"
"88121796946851","3","-0.3474274","-0.29575095","9.64102","sit down","0"
"88121817142163","3","-0.37603334","-0.3046478","9.577113","sit down","0"
"88121836945288","3","-0.42352468","-0.24925555","9.51607","sit down","0"
"88121857140601","3","-0.43623313","-0.27624297","9.712472","sit down","0"
"88121876945288","3","-0.2378017","-0.16261418","9.492512","sit down","0"
"88121897140601","3","-0.24685177","-0.30860302","9.647417","sit down","0"
"88121917787476","3","-0.2602593","-0.28210402","9.432877","sit down","0"
"88121937140601","3","-0.1594634","-0.35037705","9.869589","sit down","0"
"88121956946851","3","-0.052672435","-0.26821762","9.102372","sit down","0"
"88121977140601","3","-0.43160754","-0.29659373","9.413819","sit down","0"
"88121996946851","3","-0.24757004","-0.31116962","9.266863","sit down","0"
"88122017140601","3","-0.5498045","-0.2660533","9.333555","sit down","0"
"88122036946851","3","-0.64268994","-0.24823083","9.313187","sit down","0"
"88122057140601","3","-0.791705","-0.28856832","9.364001","sit down","0"
"88122076946851","3","-1.0732343","-0.31342018","9.307554","sit down","0"
"88122097142163","3","-1.355415","-0.391021","10.175797","sit down","0"
"88122116818726","3","-1.3563632","-0.53981584","11.141245","sit down","0"
"88122137140601","3","-1.2583636","-0.5922489","11.723084","sit down","0"
"88122156818726","3","-1.1631128","-0.4905911","10.381546","sit down","0"
"88122177140601","3","-1.2213397","-0.4525233","9.750223","sit down","0"
"88122196817163","3","-1.1299195","-0.48457685","10.15018","sit down","0"
"88122217787476","3","-1.0522516","-0.42007706","9.764091","sit down","0"
"88122236818726","3","-0.8103319","-0.5031463","9.81118","sit down","0"
"88122257787476","3","-0.53842723","-0.50500417","9.570112","sit down","0"
"88122276818726","3","-0.6484839","-0.4097341","9.4518585","sit down","0"
"88122297787476","3","-0.57846785","-0.42929953","9.322456","sit down","0"
"88122316818726","3","-0.6214773","-0.46379516","9.699285","sit down","0"
"88122337787476","3","-0.625739","-0.42265323","9.499944","sit down","0"
"88122356818726","3","-0.6346454","-0.425057","9.510258","sit down","0"
"88122377787476","3","-0.7448745","-0.42853338","9.647963","sit down","0"
"88122396818726","3","-0.85738283","-0.42348638","9.793252","sit down","0"
"88122417787476","3","-0.86866426","-0.496318","9.792936","sit down","0"
"88122436818726","3","-0.91524583","-0.46482947","9.727593","sit down","0"
"88122457787476","3","-0.9409787","-0.45979208","9.786108","sit down","0"
"88122476818726","3","-0.99573886","-0.47284526","9.850148","sit down","0"
"88122497787476","3","-0.9766619","-0.50270575","9.928333","sit down","0"
"88122517142163","3","-1.0123738","-0.47956818","9.868679","sit down","0"
"88122537140601","3","-0.96801406","-0.4641495","9.8449","sit down","0"
"88122556818726","3","-0.9522793","-0.47358268","9.828408","sit down","0"
"88122577140601","3","-0.82893014","-0.46925396","9.746641","sit down","0"
"88122596817163","3","-0.8200428","-0.45191038","9.622421","sit down","0"
"88122617140601","3","-0.85256565","-0.43824425","9.699543","sit down","0"
"88122636946851","3","-0.83896655","-0.4487596","9.7179985","sit down","0"
"88122657140601","3","-0.8116535","-0.4634887","9.763497","sit down","0"
"88122676946851","3","-0.7707893","-0.4449959","9.666235","sit down","0"
"88122697140601","3","-0.76749486","-0.43064985","9.639669","sit down","0"
"88122716946851","3","-0.78418726","-0.43018058","9.589773","sit down","0"
"88122737140601","3","-0.8052083","-0.43019015","9.745301","sit down","0"
"88122756946851","3","-0.8262582","-0.42651266","9.711169","sit down","0"
"88122777140601","3","-0.82882476","-0.44813707","9.759666","sit down","0"
"88122796946851","3","-0.8227531","-0.44915226","9.704906","sit down","0"
"88122817140601","3","-0.83861226","-0.4504068","9.74896","sit down","0"
"88122836945288","3","-0.856789","-0.44643244","9.7953205","sit down","0"
"88122857140601","3","-0.86264044","-0.44360727","9.783369","sit down","0"
"88122876945288","3","-0.85065025","-0.44968852","9.77429","sit down","0"
"88122897140601","3","-0.82131654","-0.45049298","9.7490835","sit down","0"
"88122917787476","3","-0.79237545","-0.4535097","9.724979","sit down","0"
"88122937140601","3","-0.78503","-0.4346338","9.71841","sit down","0"
"88122956818726","3","-0.79953885","-0.44072464","9.682401","sit down","0"
"88122977140601","3","-0.7775601","-0.44541728","9.724165","sit down","0"
"88122996818726","3","-0.80035293","-0.4533373","9.719491","sit down","0"
"88123017140601","3","-0.7809982","-0.4412418","9.723274","sit down","0"
"88123036818726","3","-0.7789487","-0.44696873","9.736807","sit down","0"
"88123057787476","3","-0.77178526","-0.43691307","9.685676","sit down","0"
"88123076818726","3","-0.76101136","-0.44556093","9.734345","sit down","0"
"88123097787476","3","-0.77410287","-0.45583686","9.697158","sit down","0"
"88123116818726","3","-0.78046185","-0.43707588","9.73538","sit down","0"
"88123137787476","3","-0.80045825","-0.4472273","9.733071","sit down","0"
"88123156818726","3","-0.82064617","-0.4447852","9.756171","sit down","0"
"88123177787476","3","-0.80743974","-0.45409387","9.730351","sit down","0"
"88123196818726","3","-0.80854106","-0.446691","9.744842","sit down","0"
"88123217787476","3","-0.8092785","-0.4414333","9.7578945","sit down","0"
"88123236818726","3","-0.8263348","-0.44588652","9.768123","sit down","0"
"88123257787476","3","-0.8105905","-0.44173977","9.754888","sit down","0"
"88123276818726","3","-0.8004965","-0.4558081","9.761888","sit down","0"
"88123297787476","3","-0.8053999","-0.44829988","9.753068","sit down","0"
"88123316818726","3","-0.7873284","-0.45273396","9.7333975","sit down","0"
"88123337787476","3","-0.80223","-0.44172063","9.723475","sit down","0"
"88123356818726","3","-0.80025715","-0.45385447","9.736079","sit down","0"
"88123377140601","3","-0.8028812","-0.44390413","9.723734","sit down","0"
"88123396818726","3","-0.8189032","-0.45471638","9.718812","sit down","0"
"88123417142163","3","-0.8180796","-0.45269564","9.725783","sit down","0"
"88123436907788","3","-0.827235","-0.44255382","9.742064","sit down","0"
"88123457140601","3","-0.82242745","-0.43712378","9.757646","sit down","0"
"88123476946851","3","-0.8479592","-0.4419409","9.743328","sit down","0"
"88123497140601","3","-0.83742476","-0.44752416","9.745244","sit down","0"
"88123516946851","3","-0.84726006","-0.44347322","9.7559595","sit down","0"
"88123537140601","3","-0.8275415","-0.43953714","9.745129","sit down","0"
"88123556945288","3","-0.83001226","-0.4503302","9.726769","sit down","0"
"88123577140601","3","-0.8309125","-0.45046428","9.744287","sit down","0"
"88123596946851","3","-0.8363329","-0.44415313","9.731386","sit down","0"
"88123617140601","3","-0.845134","-0.43802398","9.736615","sit down","0"
"88123636946851","3","-0.82072276","-0.4479743","9.741183","sit down","0"
"88123657140601","3","-0.8294568","-0.44184512","9.70821","sit down","0"
"88123676946851","3","-0.82145065","-0.43997768","9.746528","sit down","0"
"88123697140601","3","-0.81152904","-0.44620258","9.704484","sit down","0"
"88123716946851","3","-0.81349224","-0.45303085","9.713841","sit down","0"
"88123737146851","3","-0.81993747","-0.43784204","9.711534","sit down","0"
"88123756818726","3","-0.8276947","-0.45211148","9.745436","sit down","0"
"88123777148413","3","-0.8327321","-0.44798386","9.735418","sit down","0"
"88123796818726","3","-0.82551116","-0.43923065","9.725142","sit down","0"
"88123817146851","3","-0.82635397","-0.45537716","9.735734","sit down","0"
"88123836818726","3","-0.8367447","-0.44811794","9.736797","sit down","0"
"88123857787476","3","-0.8315829","-0.44665268","9.729748","sit down","0"
"88123876818726","3","-0.8323203","-0.45442906","9.74624","sit down","0"
"88123897787476","3","-0.84151405","-0.44521615","9.728303","sit down","0"
"88123917149976","3","-0.81881696","-0.44420102","9.742686","sit down","0"
"88123937798413","3","-0.831851","-0.4420271","9.740781","sit down","0"
"88123956818726","3","-0.81329113","-0.45471638","9.733646","sit down","0"
"88123977787476","3","-0.8298591","-0.459658","9.713793","sit down","0"
"88123996817163","3","-0.82980156","-0.44419146","9.71931","sit down","0"
"88124017787476","3","-0.8269381","-0.43916363","9.735772","sit down","0"
"88124036818726","3","-0.8236628","-0.44716984","9.739345","sit down","0"
"88124057787476","3","-0.81376046","-0.45320323","9.7292795","sit down","0"
"88124076818726","3","-0.829045","-0.4453311","9.73423","sit down","0"
"88124097787476","3","-0.8284512","-0.43662575","9.732248","sit down","0"
"88124116818726","3","-0.8250036","-0.4336474","9.728963","sit down","0"
"88124137787476","3","-0.8242949","-0.43961373","9.740685","sit down","0"
"88124156818726","3","-0.8341303","-0.44440213","9.739641","sit down","0"
"88124177148413","3","-0.8348294","-0.43492112","9.74601","sit down","0"
"88124196818726","3","-0.83501136","-0.44598234","9.7398615","sit down","0"
"88124217148413","3","-0.82073236","-0.44411483","9.731003","sit down","0"
"88124236818726","3","-0.8149097","-0.44089705","9.751909","sit down","0"
"88124257146851","3","-0.8190851","-0.45186248","9.729327","sit down","0"
"88124276946851","3","-0.8300506","-0.43404964","9.72743","sit down","0"
"88124297146851","3","-0.830855","-0.44502464","9.74329","sit down","0"
"88124316946851","3","-0.8197268","-0.44784978","9.724233","sit down","0"
"88124337148413","3","-0.82043546","-0.44351152","9.714847","sit down","0"
"88124356946851","3","-0.82483125","-0.4426879","9.738397","sit down","0"
"88124377148413","3","-0.8344942","-0.44021708","9.745406","sit down","0"
"88124396946851","3","-0.8126974","-0.44310927","9.736146","sit down","0"
"88124417148413","3","-0.8140094","-0.4489128","9.718313","sit down","0"
"88124436946851","3","-0.83257884","-0.44414356","9.735179","sit down","0"
"88124457146851","3","-0.81003505","-0.44592488","9.728945","sit down","0"
"88124476946851","3","-0.8178785","-0.44399032","9.725707","sit down","0"
"88124497146851","3","-0.82608575","-0.43766963","9.733149","sit down","0"
"88124516946851","3","-0.83332586","-0.44506294","9.740034","sit down","0"
"88124537148413","3","-0.8176678","-0.44708365","9.750042","sit down","0"
"88124556818726","3","-0.8219582","-0.43582132","9.716484","sit down","0"
"88124577148413","3","-0.8169686","-0.44879788","9.7408","sit down","0"
"88124596818726","3","-0.8255686","-0.45275313","9.740963","lay down","0"
"88124617787476","3","-0.84172475","-0.4489607","9.733416","lay down","0"
"88124636818726","3","-0.8181466","-0.4508282","9.738042","lay down","0"
"88124657146851","3","-0.8301655","-0.43684605","9.730763","lay down","0"
"88124676818726","3","-0.8060894","-0.44900858","9.732515","lay down","0"
"88124697787476","3","-0.8233372","-0.45069408","9.72044","lay down","0"
"88124716818726","3","-0.8204833","-0.43198103","9.741058","lay down","0"
"88124737787476","3","-0.8235958","-0.4515656","9.73943","lay down","0"
"88124756818726","3","-0.8237203","-0.44238144","9.733302","lay down","0"
"88124777146851","3","-0.8159152","-0.45401725","9.743261","lay down","0"
"88124796818726","3","-0.82117283","-0.44584823","9.725036","lay down","0"
"88124817787476","3","-0.82350004","-0.4328525","9.710011","lay down","0"
"88124836818726","3","-0.8356147","-0.42983583","9.761735","lay down","0"
"88124857787476","3","-0.81644195","-0.4467676","9.749228","lay down","0"
"88124876818726","3","-0.80563927","-0.44828075","9.746306","lay down","0"
"88124897787476","3","-0.8159248","-0.442391","9.74128","lay down","0"
"88124917798413","3","-0.83342165","-0.4438371","9.755146","lay down","0"
"88124937798413","3","-0.82541543","-0.4405427","9.755874","lay down","0"
"88124956818726","3","-0.8148522","-0.44865423","9.745416","lay down","0"
"88124977146851","3","-0.8023162","-0.45193908","9.716532","lay down","0"
"88124996818726","3","-0.8191234","-0.45134532","9.771091","lay down","0"
"88125017148413","3","-0.8363329","-0.4511921","9.758202","lay down","0"
"88125036818726","3","-0.826737","-0.43702802","9.7561035","lay down","0"
"88125057146851","3","-0.8355189","-0.4525903","9.761112","lay down","0"
"88125076946851","3","-0.8204259","-0.43616608","9.757359","lay down","0"
"88125097146851","3","-0.8145457","-0.43647254","9.7245865","lay down","0"
"88125116946851","3","-0.82193905","-0.44134715","9.759446","lay down","0"
"88125137146851","3","-0.77768457","-0.4459344","9.731674","lay down","0"
"88125156946851","3","-0.7578606","-0.44866383","9.731023","lay down","0"
"88125177148413","3","-0.81243885","-0.4419409","9.741605","lay down","0"
"88125196946851","3","-0.7318117","-0.46242568","9.738013","lay down","0"
"88125217146851","3","-0.73876446","-0.4859559","9.710633","lay down","0"
"88125236946851","3","-0.81752414","-0.44048524","9.741307","lay down","0"
"88125257146851","3","-0.8038101","-0.457666","9.686135","lay down","0"
"88125276946851","3","-0.8475953","-0.4520636","9.795848","lay down","0"
"88125297148413","3","-0.7333344","-0.4324024","9.691364","lay down","0"
"88125317787476","3","-0.8306922","-0.44626963","9.739","lay down","0"
"88125337146851","3","-0.7198503","-0.47542143","9.746767","lay down","0"
"88125356818726","3","-0.6784018","-0.4445841","9.713076","lay down","0"
"88125377146851","3","-0.7550929","-0.4846822","9.663353","lay down","0"
"88125396818726","3","-0.6641132","-0.42739373","9.657874","lay down","0"
"88125417148413","3","-0.6038273","-0.45954305","9.635244","lay down","0"
"88125436924976","3","-0.7256155","-0.4703457","9.641125","lay down","0"
"88125457146851","3","-0.75123346","-0.48961425","9.691193","lay down","0"
"88125476818726","3","-0.79225093","-0.48213476","9.749524","lay down","0"
"88125497787476","3","-0.848055","-0.47689623","9.745541","lay down","0"
"88125516818726","3","-0.9139913","-0.4470166","9.846547","lay down","0"
"88125537787476","3","-1.0162812","-0.43127233","9.856268","lay down","0"
"88125556818726","3","-1.0268444","-0.42945275","9.877078","lay down","0"
"88125577787476","3","-1.0664445","-0.44733265","10.0661335","lay down","0"
"88125596818726","3","-1.0930488","-0.42450154","10.007601","lay down","0"
"88125617787476","3","-1.1534593","-0.36027947","9.923219","lay down","0"
"88125636817163","3","-1.066703","-0.40731117","9.518857","lay down","0"
"88125657787476","3","-1.0090028","-0.35203385","9.692984","lay down","0"
"88125676818726","3","-0.8857972","-0.35788527","9.785092","lay down","0"
"88125697787476","3","-0.9727929","-0.36380374","9.668955","lay down","0"
"88125716818726","3","-0.90779513","-0.31859165","9.836081","lay down","0"
"88125737787476","3","-0.92446834","-0.36297056","9.6336355","lay down","0"
"88125756818726","3","-1.0123451","-0.3268947","9.701918","lay down","0"
"88125777148413","3","-0.9859993","-0.30549058","9.792352","lay down","0"
"88125796818726","3","-1.0143753","-0.17499699","9.880228","lay down","0"
"88125817148413","3","-0.862583","-0.20552784","9.681874","lay down","0"
"88125836818726","3","-0.84359217","-0.1541387","9.392549","lay down","0"
"88125857146851","3","-1.0491775","-0.15922399","9.688262","lay down","0"
"88125876946851","3","-1.0732154","-0.113916114","9.763248","lay down","0"
"88125897146851","3","-0.9339877","-0.15025052","9.686088","lay down","0"
"88125917787476","3","-1.0767108","-0.16182889","9.648633","lay down","0"
"88125937146851","3","-1.0845158","-0.11764149","9.8266945","lay down","0"
"88125956946851","3","-0.9902993","-0.15435898","9.723859","lay down","0"
"88125977146851","3","-0.98784757","-0.15494317","9.615363","lay down","0"
"88125996946851","3","-1.1006815","-0.116386935","9.693193","lay down","0"
"88126017787476","3","-1.0512556","-0.12844414","9.838636","lay down","0"
"88126036946851","3","-1.0757723","-0.03756024","9.776972","lay down","0"
"88126057146851","3","-1.1364604","-0.027274746","9.837316","lay down","0"
"88126076946851","3","-1.1884722","-0.08019618","9.704159","lay down","0"
"88126097148413","3","-1.0996472","-0.051848833","9.767222","lay down","0"
"88126116946851","3","-1.0549906","-0.022160731","9.824875","lay down","0"
"88126137146851","3","-0.98179513","-0.04506845","9.72384","lay down","0"
"88126156818726","3","-1.0010349","-0.03178542","9.599811","lay down","0"
"88126177148413","3","-1.0117226","-0.05137957","9.696249","lay down","0"
"88126196818726","3","-1.0321977","-0.07151002","9.571358","lay down","0"
"88126217148413","3","-1.0581126","-0.01388637","9.588844","lay down","0"
"88126236818726","3","-1.117259","-0.001235408","9.565143","lay down","0"
"88126257148413","3","-1.183722","0.030186094","9.68038","lay down","0"
"88126276818726","3","-1.2381853","0.021672314","9.924685","lay down","0"
"88126297787476","3","-1.1634192","-0.008073248","9.932326","lay down","0"
"88126316818726","3","-1.0358944","0.052624553","10.041407","lay down","0"
"88126337787476","3","-1.0898886","0.12556152","10.072378","lay down","0"
"88126356818726","3","-1.0671914","0.06363788","10.015798","lay down","0"
"88126377798413","3","-1.1185136","0.10049901","9.866525","lay down","0"
"88126396818726","3","-1.116694","0.10282617","10.129331","lay down","0"
"88126417787476","3","-0.9375886","0.08871954","9.727891","lay down","0"
"88126436818726","3","-1.1161672","-0.0145759005","9.331727","lay down","0"
"88126457787476","3","-1.288387","0.04565264","9.857761","lay down","0"
"88126476818726","3","-1.0645387","0.031000124","9.791413","lay down","0"
"88126497787476","3","-1.233397","0.1852346","9.579201","lay down","0"
"88126516818726","3","-1.2914612","0.07922892","9.509386","lay down","0"
"88126537787476","3","-1.2695014","0.18550275","9.583808","lay down","0"
"88126556818726","3","-1.3364722","0.14452359","9.83131","lay down","0"
"88126577148413","3","-1.321494","0.13017754","9.979511","lay down","0"
"88126596818726","3","-1.1796807","0.13918932","9.739957","lay down","0"
"88126617146851","3","-1.0143466","0.21047907","9.882862","lay down","0"
"88126636818726","3","-1.3957334","0.3199707","9.508084","lay down","0"
"88126657146851","3","-1.3240414","-0.22258414","10.352901","lay down","0"
"88126676946851","3","-1.6610397","-0.1616086","10.343862","lay down","0"
"88126697146851","3","-1.5319827","0.0846877","10.295106","lay down","0"
"88126717787476","3","-1.0137242","0.19772275","9.985105","lay down","0"
"88126737146851","3","-0.9702454","-0.02567542","10.240652","lay down","0"
"88126756946851","3","-1.2996206","-0.17232506","10.451657","lay down","0"
"88126777148413","3","-1.4930241","0.019919759","9.620611","lay down","0"
"88126796946851","3","-1.3643502","-0.023166295","9.158156","lay down","0"
"88126817148413","3","-1.3452731","0.119920775","9.726425","lay down","0"
"88126836946851","3","-1.3769054","0.0070581064","9.533222","lay down","0"
"88126857148413","3","-1.3080386","-0.057633225","9.579067","lay down","0"
"88126876946851","3","-1.1226507","-0.13826036","10.05831","lay down","0"
"88126897148413","3","-0.9641354","0.041726146","10.605643","lay down","0"
"88126917787476","3","-1.1403774","0.35606566","8.708689","lay down","0"
"88126937146851","3","-1.0995324","-0.6621021","9.959486","lay down","0"
"88126956818726","3","-0.86256385","0.06948931","9.927126","lay down","0"
"88126977146851","3","-1.0057371","0.024736892","8.886194","lay down","0"
"88126996818726","3","-0.66276294","-0.19569248","9.659503","lay down","0"
"88127017140601","3","-0.6352296","-0.11177091","9.623772","lay down","0"
"88127036818726","3","-0.8857684","0.081345394","9.4093275","lay down","0"
"88127057140601","3","-0.79967296","-0.21544942","9.557769","lay down","0"
"88127076818726","3","-0.8809896","0.053074665","9.815231","lay down","0"
"88127097787476","3","-0.94140965","0.055574212","9.7133045","lay down","0"
"88127116818726","3","-1.0086101","-0.14194743","9.738253","lay down","0"
"88127137787476","3","-1.0706391","0.022467189","9.763363","lay down","0"
"88127156818726","3","-1.1580753","-0.06043923","9.836338","lay down","0"
"88127177787476","3","-1.1588798","-0.12179783","9.9286585","lay down","0"
"88127196818726","3","-1.1640129","-0.083969444","9.888589","lay down","0"
"88127217787476","3","-1.1262708","-0.09584468","9.825871","lay down","0"
"88127236818726","3","-1.0910282","-0.06665457","9.786645","lay down","0"
"88127257787476","3","-1.0729471","-0.0671813","9.767251","lay down","0"
"88127276818726","3","-1.0412191","-0.075924926","9.762223","lay down","0"
"88127297787476","3","-1.0095774","-0.07148129","9.78696","lay down","0"
"88127316818726","3","-0.96703726","-0.090309285","9.715229","lay down","0"
"88127337787476","3","-0.977294","-0.05746084","9.681261","lay down","0"
"88127356818726","3","-0.9560622","-0.0746991","9.698422","lay down","0"
"88127377140601","3","-0.9651697","-0.078481935","9.709407","lay down","0"
"88127396818726","3","-1.0124505","-0.068033636","9.726444","lay down","0"
"88127417142163","3","-1.0185701","-0.05900271","9.711495","lay down","0"
"88127438756226","3","-1.0159748","-0.07505344","9.692591","lay down","0"
"88127457140601","3","-0.95819783","-0.08120175","9.747934","lay down","0"
"88127476946851","3","-1.0124696","-0.09391975","9.749698","lay down","0"
"88127497140601","3","-1.0267103","-0.09147766","9.725056","lay down","0"
"88127516946851","3","-0.984218","-0.07046614","9.742218","lay down","0"
"88127537139038","3","-0.96050584","-0.068560354","9.715566","lay down","0"
"88127556945288","3","-0.9745454","-0.07716991","9.739977","lay down","0"
"88127577139038","3","-0.9422908","-0.084477015","9.7073765","lay down","0"
"88127596946851","3","-0.95672303","-0.08235096","9.707473","lay down","0"
"88127617140601","3","-0.95346683","-0.075359896","9.739326","lay down","0"
"88127636946851","3","-0.9631778","-0.07426813","9.732372","lay down","0"
"88127657140601","3","-0.98289645","-0.072984844","9.7503195","lay down","0"
"88127676946851","3","-0.9977021","-0.057230998","9.757474","lay down","0"
"88127697140601","3","-1.0345538","-0.06454767","9.784366","lay down","0"
"88127716945288","3","-1.0427132","-0.06438487","9.817041","lay down","0"
"88127737139038","3","-1.0450499","-0.051034804","9.809638","lay down","0"
"88127756818726","3","-1.0635905","-0.058399368","9.812569","lay down","0"
"88127777139038","3","-1.0373693","-0.07681557","9.801574","lay down","0"
"88127796818726","3","-1.0321499","-0.06780379","9.788023","lay down","0"
"88127817140601","3","-1.0088974","-0.0595007","9.798433","lay down","0"
"88127836818726","3","-1.0047698","-0.05899313","9.773811","lay down","0"
"88127857787476","3","-0.9860376","-0.0730423","9.762654","lay down","0"
"88127876818726","3","-0.9799468","-0.06924031","9.764206","lay down","0"
"88127897787476","3","-0.9808087","-0.07084922","9.752943","lay down","0"
"88127917798413","3","-0.9752446","-0.07347326","9.775477","lay down","0"
"88127937798413","3","-0.9743347","-0.06829221","9.752742","lay down","0"
"88127956818726","3","-0.9806746","-0.06406884","9.777297","lay down","0"
"88127977787476","3","-0.9712319","-0.07387549","9.783608","lay down","0"
"88127996818726","3","-0.987771","-0.06726749","9.803787","lay down","0"
"88128017787476","3","-0.9997995","-0.0858465","9.787037","lay down","0"
"88128036818726","3","-1.0177944","-0.07318596","9.799343","lay down","0"
"88128057787476","3","-1.009156","-0.06534255","9.810883","lay down","0"
"88128076818726","3","-1.0088112","-0.06773675","9.809159","lay down","0"
"88128097787476","3","-1.0091944","-0.077275254","9.813899","lay down","0"
"88128117140601","3","-1.0072024","-0.06646304","9.818286","lay down","0"
"88128137798413","3","-1.0069054","-0.0718069","9.817807","lay down","0"
"88128156818726","3","-1.0099701","-0.06691315","9.816716","lay down","0"
"88128177140601","3","-0.98647815","-0.07007349","9.814283","lay down","0"
"88128196818726","3","-1.00273","-0.0739521","9.801737","lay down","0"
"88128217140601","3","-1.0004603","-0.08004295","9.819348","lay down","0"
"88128236818726","3","-0.9950302","-0.07063853","9.809887","lay down","0"
"88128257140601","3","-0.98597056","-0.066261925","9.818784","lay down","0"
"88128276946851","3","-0.97968817","-0.08051222","9.82115","lay down","0"
"88128297139038","3","-1.0045495","-0.06794744","9.806248","lay down","0"
"88128316946851","3","-0.99947387","-0.072065465","9.825718","lay down","0"
"88128337140601","3","-0.99625605","-0.055526324","9.82681","lay down","0"
"88128356946851","3","-0.9891979","-0.057058617","9.836146","lay down","0"
"88128377140601","3","-1.0021554","-0.06922116","9.82814","lay down","0"
"88128396946851","3","-0.992071","-0.072506","9.837603","lay down","0"
"88128417140601","3","-0.99258816","-0.058686674","9.815633","lay down","0"
"88128436946851","3","-1.0044538","-0.054501604","9.826609","lay down","0"
"88128457140601","3","-1.0001346","-0.05953901","9.830286","lay down","0"
"88128476945288","3","-0.990012","-0.071529165","9.833073","lay down","0"
"88128497140601","3","-1.0000293","-0.06373365","9.842611","lay down","0"
"88128516946851","3","-0.99915785","-0.054990023","9.847122","lay down","0"
"88128537140601","3","-0.9994068","-0.069451004","9.831895","lay down","0"
"88128556818726","3","-0.9985162","-0.06786125","9.833322","lay down","0"
"88128577140601","3","-1.0022607","-0.057690684","9.838446","lay down","0"
"88128596818726","3","-0.9869378","-0.059194244","9.833657","sit up","0"
"88128617140601","3","-1.0015616","-0.0665205","9.838742","sit up","0"
"88128636818726","3","-0.99526966","-0.06900089","9.831147","sit up","0"
"88128657787476","3","-0.9934979","-0.07106948","9.834461","sit up","0"
"88128676818726","3","-1.0013126","-0.06706638","9.840456","sit up","0"
"88128697787476","3","-1.0095199","-0.07146213","9.830142","sit up","0"
"88128716818726","3","-0.99118036","-0.06650134","9.837497","sit up","0"
"88128737787476","3","-0.9978745","-0.062364165","9.836395","sit up","0"
"88128756818726","3","-0.9922913","-0.06947973","9.844028","sit up","0"
"88128777787476","3","-0.9920327","-0.07069599","9.828131","sit up","0"
"88128796818726","3","-0.98647815","-0.059337895","9.845791","sit up","0"
"88128817787476","3","-0.9874167","-0.07313807","9.848692","sit up","0"
"88128836818726","3","-1.0008817","-0.06673119","9.862369","sit up","0"
"88128857787476","3","-0.99175495","-0.07000645","9.871006","sit up","0"
"88128876818726","3","-0.9766619","-0.07243896","9.818401","sit up","0"
"88128897787476","3","-0.99856406","-0.07344454","9.828246","sit up","0"
"88128917798413","3","-0.9939959","-0.0789895","9.815758","sit up","0"
"88128937140601","3","-0.93663085","-0.08810662","9.838416","sit up","0"
"88128956818726","3","-0.9933734","-0.070561916","9.797035","sit up","0"
"88128977140601","3","-0.99892795","-0.059290014","9.955292","sit up","0"
"88128996818726","3","-0.9714234","-0.057748146","9.75574","sit up","0"
"88129017140601","3","-0.9188276","-0.0718452","9.866227","sit up","0"
"88129036946851","3","-1.0348601","-0.040711008","9.804802","sit up","0"
"88129057140601","3","-0.9930383","-0.044819456","9.945284","sit up","0"
"88129076946851","3","-1.0018297","-0.0851857","9.787994","sit up","0"
"88129097140601","3","-0.8204546","-0.012555194","9.95283","sit up","0"
"88129116946851","3","-1.2473981","-0.051686026","9.794535","sit up","0"
"88129137140601","3","-0.9610996","-0.056187127","9.851345","sit up","0"
"88129156946851","3","-0.96655834","-0.110324815","9.891022","sit up","0"
"88129177140601","3","-0.97846234","-0.08626787","9.812454","sit up","0"
"88129196946851","3","-1.0055264","-0.020254945","9.741058","sit up","0"
"88129217140601","3","-1.0046453","0.012919112","9.837037","sit up","0"
"88129236946851","3","-0.95751786","-0.08060799","9.768927","sit up","0"
"88129257140601","3","-1.0091847","-0.015619772","9.844507","sit up","0"
"88129276946851","3","-1.1399274","0.09374736","9.776061","sit up","0"
"88129297140601","3","-1.1399082","0.103659354","9.945121","sit up","0"
"88129316818726","3","-1.0949451","0.020494366","9.993742","sit up","0"
"88129337140601","3","-1.1002219","0.056273315","9.907216","sit up","0"
"88129356818726","3","-1.1004038","0.12752476","9.978008","sit up","0"
"88129377140601","3","-1.0279553","0.32207757","10.046205","sit up","0"
"88129396818726","3","-0.66926557","0.28129956","9.979099","sit up","0"
"88129417140601","3","-0.57829547","0.18874928","10.200007","sit up","0"
"88129436921851","3","0.19376753","-0.23403801","10.129647","sit up","0"
"88129457787476","3","1.164128","-0.71829885","9.740886","sit up","0"
"88129476818726","3","1.8254447","-1.1644824","9.712836","sit up","0"
"88129497787476","3","0.7293887","-0.8641919","9.136102","sit up","0"
"88129517142163","3","-0.66574126","-0.0320823","9.407105","sit up","0"
"88129537798413","3","-1.7940615","0.53961474","9.589036","sit up","0"
"88129556818726","3","-1.9989765","0.53693324","9.351857","sit up","0"
"88129577787476","3","-2.0427425","0.5365885","9.284953","sit up","0"
"88129596818726","3","-1.8900881","0.5544588","8.495059","sit up","0"
"88129617787476","3","-1.960765","0.60086805","8.628291","sit up","0"
"88129636818726","3","-2.0757825","0.64295805","9.506628","sit up","0"
"88129657787476","3","-1.9604968","0.6517209","9.738961","sit up","0"
"88129676818726","3","-1.9224864","0.5778358","10.905914","sit up","0"
"88129697787476","3","-1.420432","0.22339818","8.14585","sit up","0"
"88129716818726","3","-1.3636607","0.49849194","10.065588","sit up","0"
"88129737140601","3","-0.7300304","0.81123215","12.407309","sit up","0"
"88129756818726","3","-0.8575456","0.7815153","10.019255","sit up","0"
"88129777139038","3","-1.2314241","0.66094327","9.567153","sit up","0"
"88129796817163","3","-1.2737057","0.7835456","11.37787","sit up","0"
"88129817140601","3","-1.2271433","0.6179913","10.124639","sit up","0"
"88129836946851","3","-1.3614963","0.6422206","10.313541","sit up","0"
"88129857139038","3","-1.3933488","0.5817144","10.456992","sit up","0"
"88129876945288","3","-1.393071","0.6264668","9.913987","sit up","0"
"88129897140601","3","-1.227239","0.53634906","9.882355","sit up","0"
"88129917787476","3","-1.1592724","0.4889343","9.505364","sit up","0"
"88129937139038","3","-1.1698357","0.5118037","9.836865","sit up","0"
"88129956946851","3","-1.0297749","0.47479892","9.630418","sit up","0"
"88129977140601","3","-0.6759023","0.31218475","9.41651","sit up","0"
"88129996946851","3","-0.66019636","0.30372843","9.430042","sit up","0"
"88130017140601","3","-0.8220252","0.43279505","9.565774","sit up","0"
"88130036946851","3","-0.79137945","0.3817315","9.478023","sit up","0"
"88130057140601","3","-1.1258686","0.42702982","9.532016","sit up","0"
"88130076946851","3","-1.2225369","0.50956273","9.767577","sit up","0"
"88130097140601","3","-1.5004845","0.65093553","10.21468","sit up","0"
"88130116818726","3","-1.4261111","0.6691794","9.850713","sit up","0"
"88130137140601","3","-1.4712561","0.5620532","10.006844","sit up","0"
"88130156818726","3","-1.6260557","0.6347507","10.101089","sit up","0"
"88130177140601","3","-1.7572005","0.689578","10.249118","sit up","0"
"88130196818726","3","-1.8078904","0.6890417","10.156357","sit up","0"
"88130217787476","3","-1.5387056","0.57298994","10.030537","sit up","0"
"88130236818726","3","-1.5823662","0.5547653","10.03521","sit up","0"
"88130257787476","3","-1.6799155","0.58090997","9.857264","sit up","0"
"88130276818726","3","-1.5297034","0.44230482","9.962608","sit up","0"
"88130297787476","3","-1.6449602","0.50489885","9.69735","sit up","0"
"88130316818726","3","-1.4993162","0.45319366","9.359556","sit up","0"
"88130337787476","3","-1.4032129","0.38175067","9.4010725","sit up","0"
"88130356818726","3","-1.3549553","0.35211045","9.865078","sit up","0"
"88130377787476","3","-1.6102059","0.4163325","9.761955","sit up","0"
"88130396818726","3","-1.5181059","0.46852612","9.8105","sit up","0"
"88130417787476","3","-1.5138249","0.50848055","9.903635","sit up","0"
"88130436818726","3","-1.6702238","0.57200354","9.750415","sit up","0"
"88130457787476","3","-1.5886678","0.5166687","9.387311","sit up","0"
"88130476818726","3","-1.7548158","0.57717496","10.104279","sit up","0"
"88130497787476","3","-1.8265365","0.6205005","9.71614","sit up","0"
"88130516818726","3","-1.9252925","0.6456779","9.630725","sit up","0"
"88130537140601","3","-2.008218","0.6834584","9.747514","sit up","0"
"88130556818726","3","-2.1533544","0.7513484","9.707319","sit up","0"
"88130577139038","3","-2.28788","0.81800294","9.824721","sit up","0"
"88130596818726","3","-2.3020632","0.81392324","9.536785","sit up","0"
"88130617140601","3","-2.3321536","0.81686336","9.486517","sit up","0"
"88130636946851","3","-2.3644276","0.86297566","9.362775","sit up","0"
"88130657140601","3","-2.3166966","0.683286","9.633138","sit up","0"
"88130676946851","3","-1.9660801","0.43402088","9.571951","sit up","0"
"88130697140601","3","-2.4664588","0.5788509","9.679968","sit up","0"
"88130716946851","3","-2.4964435","0.5278257","9.651611","sit up","0"
"88130737140601","3","-2.593926","0.7419727","9.982499","sit up","0"
"88130756946851","3","-2.6391284","0.55303186","9.803854","sit up","0"
"88130777140601","3","-2.344661","0.49044743","9.682133","sit up","0"
"88130796946851","3","-2.368804","0.48619533","9.917214","sit up","0"
"88130817140601","3","-2.2056632","0.50721645","9.822471","sit up","0"
"88130836946851","3","-1.9050759","0.23063825","9.074149","sit up","0"
"88130857140601","3","-2.103038","0.2951955","8.53281","sit up","0"
"88130876946851","3","-1.3194255","-1.743812","5.298742","sit up","0"
"88130897140601","3","-5.604031","1.6491452","14.472164","sit up","0"
"88130917142163","3","-6.2111816","2.5371068","7.2420583","sit up","0"
"88130937140601","3","-5.874308","0.9822356","7.956124","sit up","0"
"88130956818726","3","-6.089968","0.83522207","7.7993517","sit up","0"
"88130977140601","3","-5.352688","1.8445026","9.241753","sit up","0"
"88130996835913","3","-3.7850413","0.023175873","10.448985","sit up","0"
"88131017787476","3","-4.100913","-0.9319957","9.552463","sit up","0"
"88131036818726","3","-4.362475","-0.78411067","10.271001","sit up","0"
"88131057787476","3","-3.3273752","-0.510348","9.566885","sit up","0"
"88131076818726","3","-1.941937","-0.7485328","9.951461","sit up","0"
"88131097787476","3","-2.6654265","-1.8039736","11.751996","sit up","0"
"88131116818726","3","-3.4232678","-2.7718725","10.660432","sit up","0"
"88131137787476","3","-2.2150578","-4.136692","8.053701","sit up","0"
"88131156818726","3","-1.7751281","-3.174702","7.920891","sit up","0"
"88131177787476","3","-1.0782527","-2.8131776","7.652137","sit up","0"
"88131196818726","3","-4.278831","-4.503072","2.4501972","sit up","0"
"88131217787476","3","-5.636152","-2.5123315","25.270943","sit up","0"
"88131236818726","3","-3.6457276","-0.41916728","5.4231734","sit up","0"
"88131257787476","3","0.7421259","-0.06867529","7.9509907","sit up","0"
"88131276818726","3","-0.31213686","0.055114526","12.393173","sit up","0"
"88131297787476","3","0.21920353","1.2211003","8.482704","sit up","0"
"88131316818726","3","-0.1739627","-0.4086232","9.914149","sit up","0"
"88131337140601","3","-0.67426467","-2.033635","9.991827","sit up","0"
"88131356818726","3","-0.3658915","-1.3448327","9.941443","sit up","0"
"88131377140601","3","-0.6041241","-0.30565336","10.28869","sit up","0"
"88131396818726","3","-1.7188454","0.7909102","9.914016","sit up","0"
"88131417142163","3","-2.8090115","-0.5718982","9.315303","sit up","0"
"88131436899976","3","-1.3598299","0.96697974","9.973602","sit up","0"
"88131457140601","3","-1.0298706","2.0332997","9.878955","sit up","0"
"88131476946851","3","-1.4493635","1.6621314","9.97796","sit up","0"
"88131497140601","3","-1.3701633","0.70379955","10.279726","sit up","0"
"88131516946851","3","-1.4521313","-0.0062728086","9.228795","sit up","0"
"88131537139038","3","-1.2416426","-0.5434838","9.972616","sit up","0"
"88131556946851","3","-1.1830996","-0.70997655","9.636183","sit up","0"
"88131577140601","3","-1.0264614","-0.8635886","9.943359","sit up","0"
"88131596946851","3","-1.0928669","-0.919814","9.734786","sit up","0"
"88131617142163","3","-1.0108702","-1.0051817","9.720478","sit up","0"
"88131636946851","3","-1.038327","-1.0395337","9.904745","sit up","0"
"88131657140601","3","-1.0398209","-1.1356944","9.905167","sit up","0"
"88131676948413","3","-1.1067724","-1.1074716","10.087126","sit up","0"
"88131697140601","3","-0.9716437","-1.1238958","9.404089","sit up","0"
"88131716817163","3","-1.0152181","-1.266705","10.101127","sit up","0"
"88131737140601","3","-0.87612456","-1.5585966","9.727134","sit up","0"
"88131756818726","3","-0.89840984","-1.5822226","9.729107","sit up","0"
"88131777140601","3","-0.9219113","-1.5754135","9.856029","sit up","0"
"88131796818726","3","-0.9267763","-1.5983595","10.0099945","sit up","0"
"88131817787476","3","-0.8812769","-1.624801","9.733273","sit up","0"
"88131836818726","3","-0.8354232","-1.619687","9.458208","sit up","0"
"88131857787476","3","-0.8025939","-1.6320314","9.5214815","sit up","0"
"88131876818726","3","-0.87112546","-1.7838048","9.636346","sit up","0"
"88131897787476","3","-1.2180741","-2.6387646","8.88086","sit up","0"
"88131917798413","3","-2.0707834","-4.145886","9.759724","sit up","0"
"88131937798413","3","-3.3050807","-4.1055007","10.206826","sit up","0"
"88131956818726","3","-2.4906592","-2.1705449","10.141359","sit up","0"
"88131977798413","3","-1.3338194","-1.8615013","9.765796","sit up","0"
"88131996818726","3","-1.1006528","-1.6594117","9.694363","sit up","0"
"88132017787476","3","-1.0715585","-1.5218503","10.121717","sit up","0"
"88132036818726","3","-1.1942756","-1.5552926","10.0762","sit up","0"
"88132057787476","3","-1.2069554","-1.5430821","9.839776","sit up","0"
"88132076818726","3","-1.2214067","-1.5348461","9.696891","sit up","0"
"88132097787476","3","-1.257722","-1.6135962","10.03115","sit up","0"
"88132116818726","3","-1.3624444","-1.61758","10.09584","sit up","0"
"88132137140601","3","-1.150797","-1.5730863","9.938628","sit up","0"
"88132156818726","3","-1.0424929","-1.3408488","9.67132","sit up","0"
"88132177140601","3","-1.1207545","-1.3780929","9.496026","sit up","0"
"88132196818726","3","-1.1515632","-1.3973039","9.348763","sit up","0"
"88132217140601","3","-1.1215686","-1.5238328","9.700147","sit up","0"
"88132236946851","3","-1.100174","-1.6030713","9.787506","sit up","0"
"88132257139038","3","-1.1202278","-1.5846742","9.823093","sit up","0"
"88132276946851","3","-1.1547235","-1.6532154","9.824003","sit up","0"
"88132297140601","3","-1.0764714","-1.5747335","9.85665","sit up","0"
"88132317787476","3","-1.1044357","-1.574542","9.759906","sit up","0"
"88132337140601","3","-1.1753136","-1.5775874","9.795666","sit up","0"
"88132356946851","3","-1.1736664","-1.5832568","9.880277","sit up","0"
"88132377140601","3","-1.1083143","-1.5849233","9.822213","sit up","0"
"88132396946851","3","-1.0495605","-1.601606","9.715173","sit up","0"
"88132417140601","3","-1.0243351","-1.5810063","9.713899","sit up","0"
"88132436946851","3","-1.1099614","-1.5516055","9.72158","sit up","0"
"88132457140601","3","-1.1427046","-1.5484452","9.72291","sit up","0"
"88132476946851","3","-1.1286937","-1.5832281","9.7840395","sit up","0"
"88132497139038","3","-1.0652857","-1.571554","9.773065","sit up","0"
"88132516818726","3","-1.0512556","-1.5556086","9.703537","sit up","0"
"88132537140601","3","-1.0807905","-1.5781811","9.737247","sit up","0"
"88132556818726","3","-1.1097028","-1.5751836","9.771666","sit up","0"
"88132577140601","3","-1.0801393","-1.564697","9.712443","sit up","0"
"88132596818726","3","-1.1003463","-1.5919238","9.742629","stand up","0"
"88132617787476","3","-1.0847554","-1.5548424","9.75484","stand up","0"
"88132636818726","3","-1.099561","-1.5492592","9.758249","stand up","0"
"88132657787476","3","-1.1194329","-1.5428236","9.692629","stand up","0"
"88132676818726","3","-1.1352634","-1.5516629","9.748384","stand up","0"
"88132697787476","3","-1.08239","-1.5431683","9.694476","stand up","0"
"88132716818726","3","-1.0951844","-1.5602055","9.694899","stand up","0"
"88132737787476","3","-1.1137731","-1.5528505","9.745444","stand up","0"
"88132756818726","3","-1.073129","-1.5339746","9.731204","stand up","0"
"88132777787476","3","-1.0897353","-1.5385236","9.698768","stand up","0"
"88132796818726","3","-1.0811832","-1.5487132","9.700616","stand up","0"
"88132817787476","3","-1.080417","-1.5413392","9.682553","stand up","0"
"88132836818726","3","-1.1231391","-1.549805","9.672231","stand up","0"
"88132857787476","3","-1.1123941","-1.5690831","9.708977","stand up","0"
"88132876818726","3","-1.084899","-1.6003419","9.680102","stand up","0"
"88132897787476","3","-1.1088793","-1.5827206","9.737486","stand up","0"
"88132917798413","3","-1.0694325","-1.5907077","9.704724","stand up","0"
"88132937140601","3","-1.0866995","-1.61713","9.801335","stand up","0"
"88132956818726","3","-1.1461043","-1.5231912","9.73538","stand up","0"
"88132977139038","3","-1.1485082","-1.5349323","9.782469","stand up","0"
"88132996818726","3","-1.0743932","-1.5308142","9.906105","stand up","0"
"88133017142163","3","-1.063217","-1.4062774","9.699093","stand up","0"
"88133036946851","3","-1.0244405","-1.3686119","9.841806","stand up","0"
"88133057139038","3","-0.8888713","-1.3365583","9.567316","stand up","0"
"88133076945288","3","-0.8155896","-1.2660635","9.625045","stand up","0"
"88133097140601","3","-0.71857655","-1.1297759","9.495146","stand up","0"
"88133116946851","3","-0.64304423","-1.0361723","9.346044","stand up","0"
"88133137139038","3","-0.6124943","-1.0576817","9.3717575","stand up","0"
"88133156946851","3","-0.6658179","-1.1068203","9.58148","stand up","0"
"88133177139038","3","-0.7044795","-1.1411052","9.455287","stand up","0"
"88133196946851","3","-0.66105825","-1.1696728","9.345652","stand up","0"
"88133217139038","3","-0.65705514","-1.2356282","9.721417","stand up","0"
"88133236946851","3","-0.6624277","-1.2885401","9.656227","stand up","0"
"88133257140601","3","-0.6679152","-1.2834836","9.527381","stand up","0"
"88133276946851","3","-0.6623894","-1.2891628","9.4921","stand up","0"
"88133297140601","3","-0.67786556","-1.2943151","9.572688","stand up","0"
"88133316818726","3","-0.63923275","-1.2975712","9.421251","stand up","0"
"88133337139038","3","-0.6618148","-1.2925528","9.507375","stand up","0"
"88133356818726","3","-0.69940376","-1.3107585","9.472793","stand up","0"
"88133377139038","3","-0.69668394","-1.3084408","9.509204","stand up","0"
"88133396817163","3","-0.8228776","-1.3990566","9.796452","stand up","0"
"88133417140601","3","-0.81441164","-1.4403135","9.767701","stand up","0"
"88133436921851","3","-0.8685206","-1.4707485","9.982643","stand up","0"
"88133457787476","3","-0.8640291","-1.518125","9.711285","stand up","0"
"88133476818726","3","-0.90001875","-1.5735172","9.729739","stand up","0"
"88133497787476","3","-0.9796499","-1.6291776","10.117265","stand up","0"
"88133516817163","3","-0.9869187","-1.5953141","9.989979","stand up","0"
"88133537787476","3","-0.98586524","-1.652344","9.929847","stand up","0"
"88133556818726","3","-1.0493977","-1.7379988","10.332762","stand up","0"
"88133577787476","3","-1.0351379","-1.7160201","9.911631","stand up","0"
"88133596818726","3","-0.99437904","-1.7282593","9.939384","stand up","0"
"88133617787476","3","-0.875483","-1.623489","9.18549","stand up","0"
"88133636818726","3","-0.96972835","-1.8341979","10.046214","stand up","0"
"88133657787476","3","-0.83876544","-1.7192092","9.503639","stand up","0"
"88133676818726","3","-0.8564155","-1.7762965","9.922989","stand up","0"
"88133697787476","3","-0.85495025","-1.7420499","9.637812","stand up","0"
"88133717140601","3","-0.86677766","-1.7353365","9.885994","stand up","0"
"88133737140601","3","-0.96218175","-1.7342256","10.343459","stand up","0"
"88133756818726","3","-1.000106","-1.6855179","10.146894","stand up","0"
"88133777140601","3","-1.184785","-1.5866758","9.967359","stand up","0"
"88133796818726","3","-1.1739346","-1.4869525","9.902159","stand up","0"
"88133817140601","3","-1.120563","-1.4209204","10.212036","stand up","0"
"88133836946851","3","-0.9917167","-1.216264","9.0952","stand up","0"
"88133857140601","3","-0.9688281","-0.817256","9.693644","stand up","0"
"88133876945288","3","-0.34879687","-0.12551363","10.194913","stand up","0"
"88133897140601","3","-0.104894765","-0.43897212","10.863968","stand up","0"
"88133917787476","3","-0.010390836","-1.1331182","8.932","stand up","0"
"88133937139038","3","-0.3771538","-1.0212994","7.291934","stand up","0"
"88133956946851","3","-0.6162675","-1.1390463","7.7203717","stand up","0"
"88133977140601","3","-0.72124845","-1.3680851","9.21174","stand up","0"
"88133996946851","3","-0.60045624","-1.3891828","9.4270735","stand up","0"
"88134017139038","3","-0.30710903","-1.2539105","10.780516","stand up","0"
"88134036946851","3","-0.45020568","-0.9183966","10.097967","stand up","0"
"88134057140601","3","-0.5172625","-1.0539467","9.580215","stand up","0"
"88134076946851","3","-0.10198341","-1.0986896","9.454531","stand up","0"
"88134097140601","3","-0.2236759","-1.0953665","9.827432","stand up","0"
"88134116818726","3","-0.20056707","-0.8533797","9.608841","stand up","0"
"88134137140601","3","-0.22061133","-1.0862684","9.58964","stand up","0"
"88134156818726","3","0.13593319","-1.0737133","10.095363","stand up","0"
"88134177140601","3","0.12628935","-0.9404137","9.572938","stand up","0"
"88134196818726","3","0.017199945","-0.9011009","9.457738","stand up","0"
"88134217140601","3","-0.013148955","-0.8975383","9.840648","stand up","0"
"88134236818726","3","0.24381591","-0.90756524","10.09292","stand up","0"
"88134257787476","3","-0.042990282","-1.0232339","9.921907","stand up","0"
"88134276818726","3","0.14482047","-0.99994314","9.654666","stand up","0"
"88134297787476","3","0.12043792","-1.0186466","10.071803","stand up","0"
"88134316818726","3","0.014403517","-1.0118184","9.826244","stand up","0"
"88134337787476","3","0.07616434","-1.0947919","10.594131","stand up","0"
"88134356818726","3","0.1946869","-1.0085622","9.978199","stand up","0"
"88134377787476","3","0.21377349","-0.8515026","10.015626","stand up","0"
"88134396818726","3","0.03041594","-0.8088858","9.937901","stand up","0"
"88134417787476","3","0.29320353","-0.6631268","9.751794","stand up","0"
"88134437798413","3","0.1946869","-0.89100695","9.697638","stand up","0"
"88134457798413","3","0.12685439","-0.5616797","9.421174","stand up","0"
"88134476818726","3","0.1560445","-0.50510955","9.920221","stand up","0"
"88134497787476","3","-0.058571752","-0.2892196","9.028142","stand up","0"
"88134516818726","3","0.21357237","-0.25739583","9.057524","stand up","0"
"88134537140601","3","0.14234966","-0.22971888","9.614166","stand up","0"
"88134556818726","3","0.016031574","-0.12236286","9.503037","stand up","0"
"88134577140601","3","0.16448165","-0.16270995","9.411933","stand up","0"
"88134596818726","3","0.13812628","-0.30107567","9.62607","stand up","0"
"88134617140601","3","0.08780974","-0.31155267","9.912828","stand up","0"
"88134636946851","3","0.13145125","-0.19506039","9.617163","stand up","0"
"88134657139038","3","0.18386512","-0.30837318","9.7116","stand up","0"
"88134676946851","3","0.17568652","-0.2740882","9.7602415","stand up","0"
"88134697140601","3","0.09254069","-0.36214694","10.090029","stand up","0"
"88134716946851","3","0.062335435","-0.35039622","9.888053","stand up","0"
"88134737139038","3","0.14664964","-0.36305672","9.737065","stand up","0"
"88134756945288","3","0.1154101","-0.28142405","9.608448","stand up","0"
"88134777140601","3","-0.04582502","-0.40424657","9.739516","stand up","0"
"88134796946851","3","0.12797487","-0.19572121","9.857915","stand up","0"
"88134817140601","3","-0.077907324","-0.32530496","9.613706","stand up","0"
"88134836946851","3","0.023472754","-0.3823253","10.146463","stand up","0"
"88134857139038","3","0.12287043","-0.32566887","9.548028","stand up","0"
"88134876946851","3","0.15940595","-0.24309766","9.742372","stand up","0"
"88134897140601","3","0.09215761","-0.25685954","9.774079","stand up","0"
"88134917787476","3","0.13515747","-0.36188838","9.755127","stand up","0"
"88134937140601","3","0.060515843","-0.3351595","10.2834215","stand up","0"
"88134956818726","3","0.06415503","-0.29707253","9.740781","stand up","0"
"88134977140601","3","0.13036907","-0.31919497","9.700827","stand up","0"
"88134996818726","3","0.11071746","-0.31983662","9.785304","stand up","0"
"88135017140601","3","0.06301539","-0.31309456","9.894239","stand up","0"
"88135036818726","3","-0.0067229187","-0.38903862","10.043849","stand up","0"
"88135057787476","3","0.16979678","-0.21934718","9.624231","stand up","0"
"88135076818726","3","0.10518207","-0.30127677","9.833082","stand up","0"
"88135097787476","3","0.07106948","-0.29282042","9.9048605","stand up","0"
"88135117140601","3","0.115908094","-0.31387985","9.904295","stand up","0"
"88135137798413","3","0.1973301","-0.19599894","9.797687","stand up","0"
"88135156818726","3","-0.0560339","-0.4594569","9.877758","stand up","0"
"88135177787476","3","0.058169525","-0.45039722","9.9611435","stand up","0"
"88135196818726","3","0.18093462","-0.21466412","9.554713","stand up","0"
"88135217787476","3","0.04969405","-0.3306967","9.863345","stand up","0"
"88135236818726","3","0.017276559","-0.3514401","10.037336","stand up","0"
"88135257787476","3","0.15519215","-0.23106919","9.784317","stand up","0"
"88135276818726","3","0.050804958","-0.3452343","9.760136","stand up","0"
"88135297787476","3","0.09376652","-0.30098948","9.930871","stand up","0"
"88135316818726","3","0.12650004","-0.25775978","9.817175","stand up","0"
"88135337140601","3","0.08033983","-0.31656134","9.88971","stand up","0"
"88135356818726","3","0.027255593","-0.3613138","9.929684","stand up","0"
"88135377140601","3","-0.02297476","-0.3912413","9.843281","stand up","0"
"88135396818726","3","0.24334666","-0.17746781","9.815642","stand up","0"
"88135417140601","3","0.08057925","-0.34475547","9.916314","stand up","0"
"88135436898413","3","-0.055526324","-0.40892965","9.976073","stand up","0"
"88135457139038","3","0.1932025","-0.24193887","9.818113","stand up","0"
"88135476945288","3","0.137341","-0.32868558","9.882651","stand up","0"
"88135497140601","3","0.14176548","-0.23093513","9.800809","stand up","0"
"88135516946851","3","0.10373597","-0.35179442","9.906891","stand up","0"
"88135537140601","3","0.17490123","-0.16388789","9.90035","stand up","0"
"88135556946851","3","0.05872498","-0.3236769","9.73967","stand up","0"
"88135577140601","3","-0.00410845","-0.4197706","9.993694","stand up","0"
"88135596946851","3","-0.15597744","-0.5541907","9.901442","stand up","0"
"88135617140601","3","-0.033758245","-0.23625025","9.513926","stand up","0"
"88135636946851","3","0.23922864","-7.469909E-4","9.477744","stand up","0"
"88135657140601","3","0.27662608","4.6926353E-4","9.8379755","stand up","0"
"88135676946851","3","-0.040797196","-0.4098203","9.998129","stand up","0"
"88135697140601","3","0.11827356","-0.25894725","10.315255","stand up","0"
"88135716818726","3","-0.006943185","-0.4010192","9.831933","stand up","0"
"88135737140601","3","0.07400956","-0.2550687","9.769223","stand up","0"
"88135756818726","3","0.1808963","-0.23213221","9.824923","stand up","0"
"88135777140601","3","0.051082686","-0.2645593","9.8677025","stand up","0"
"88135796818726","3","0.040289626","-0.33218113","9.847246","stand up","0"
"88135817142163","3","0.11760319","-0.26788244","9.913096","stand up","0"
"88135836818726","3","0.19484971","-0.20883185","9.087116","stand up","0"
"88135857787476","3","-0.027466282","-0.30843064","10.500021","stand up","0"
"88135876818726","3","0.04111323","-0.36760575","9.880679","stand up","0"
"88135897787476","3","0.06750691","-0.2583152","9.970231","stand up","0"
"88135917798413","3","-0.010333375","-0.36421555","9.85417","stand up","0"
"88135937799976","3","-0.018760966","-0.29619145","9.902782","stand up","0"
"88135956818726","3","0.16801551","-0.26970202","9.920652","stand up","0"
"88135977787476","3","0.03929364","-0.31729877","9.885813","stand up","0"
"88135996818726","3","0.06504567","-0.2789245","9.769923","stand up","0"
"88136017787476","3","-0.0011492168","-0.32433772","9.980297","stand up","0"
"88136036818726","3","0.053189587","-0.29691932","9.80892","stand up","0"
"88136057787476","3","0.054357957","-0.2610446","9.850541","stand up","0"
"88136076818726","3","0.04144842","-0.3065823","9.883677","stand up","0"
"88136097787476","3","-0.0021164743","-0.32263306","9.943972","stand up","0"
"88136116818726","3","0.011731588","-0.30887118","9.932307","stand up","0"
"88136137140601","3","-0.0049990932","-0.29872933","9.88721","stand up","0"
"88136156818726","3","0.02918053","-0.3347573","9.855042","stand up","0"
"88136177140601","3","0.021049822","-0.28022692","9.864016","stand up","0"
"88136196818726","3","0.03593218","-0.30665892","9.884088","stand up","0"
"88136217140601","3","0.051829677","-0.27875212","9.855042","stand up","0"
"88136236946851","3","0.017774554","-0.29286832","9.896558","stand up","0"
"88136257140601","3","0.011089942","-0.3208326","9.911957","stand up","0"
"88136276946851","3","0.056551043","-0.2671929","9.842975","stand up","0"
"88136297140601","3","0.0014173675","-0.30651528","9.859649","stand up","0"
"88136316946851","3","-1.0534488E-4","-0.31627405","9.97705","stand up","0"
"88136337139038","3","0.06039134","-0.27281448","9.819934","stand up","0"
"88136356946851","3","0.027600357","-0.27562052","9.817357","stand up","0"
"88136377140601","3","0.01964203","-0.29409415","9.972673","stand up","0"
"88136396946851","3","0.028337771","-0.3292602","9.898272","stand up","0"
"88136417140601","3","0.04721366","-0.26887843","9.846231","stand up","0"
"88136436946851","3","0.011089942","-0.32214463","9.861199","stand up","0"
"88136457140601","3","0.049243942","-0.29443893","9.863709","stand up","0"
"88136476946851","3","-0.012574348","-0.3291357","9.913268","stand up","0"
"88136497140601","3","0.01892377","-0.27193344","9.830573","stand up","0"
"88136517140601","3","0.034572273","-0.2775933","9.847246","stand up","0"
"88136537140601","3","-0.0142598655","-0.30474356","9.90329","stand up","0"
"88136556818726","3","0.011971008","-0.28979415","9.930077","stand up","0"
"88136577140601","3","9.672575E-4","-0.2703341","9.827758","stand up","0"
"88136617785913","3","0.0391021","-0.29099128","9.875536","none","1"
"88136636818726","3","0.04820007","-0.30729097","9.963547","none","1"
"88136657787476","3","0.038431726","-0.289459","9.809006","none","1"
"88136676818726","3","0.013599066","-0.2992848","9.896978","none","1"
"88136697787476","3","-7.565677E-4","-0.29514763","9.855482","none","1"
"88136716818726","3","-0.0030262708","-0.28626034","9.8842125","none","1"
"88136737787476","3","9.3852705E-4","-0.30146828","9.856689","none","1"
"88136756818726","3","0.020819979","-0.28209442","9.8707485","none","1"
"88136777787476","3","0.0024325089","-0.3029431","9.891443","none","1"
"88136796818726","3","0.014796167","-0.31333396","9.816314","none","1"
"88136817787476","3","-0.0019536687","-0.28546545","9.886712","none","1"
"88136836818726","3","0.027964275","-0.2834639","9.843923","none","1"
"88136857787476","3","0.024938006","-0.30117142","9.833044","none","1"
"88136876818726","3","0.027657818","-0.28972715","9.884701","none","1"
"88136897787476","3","0.044905648","-0.25706065","9.873094","none","1"
"88136917798413","3","0.030789435","-0.28079197","9.847965","none","1"
"88136937140601","3","0.0010630256","-0.29210216","9.895897","none","1"
"88136956818726","3","-0.0062249247","-0.26796862","9.932049","none","1"
"88136977140601","3","0.012076353","-0.27829242","9.843205","none","1"
"88136996818726","3","0.0329921","-0.2883672","9.898453","none","1"
"88137017140601","3","-0.008609549","-0.28728506","9.930162","none","1"
"88137036946851","3","0.012018892","-0.3093883","9.904286","none","1"
"88137057140601","3","0.0066271503","-0.2939601","9.883619","none","1"
"88137076946851","3","0.0098641105","-0.29583713","9.902553","none","1"
"88137097140601","3","0.012258313","-0.3094841","9.933821","none","1"
"88137116946851","3","0.016127342","-0.30471486","9.880191","none","1"
"88137137140601","3","0.004941632","-0.27894366","9.875594","none","1"
"88137156946851","3","0.023520637","-0.2210327","9.894182","none","1"
"88137177140601","3","0.03605668","-0.24191973","9.877912","none","1"
"88137196946851","3","-0.0052768206","-0.29199684","9.955426","none","1"
"88137217142163","3","0.02809835","-0.27561092","9.912128","none","1"
"88137236946851","3","0.024123976","-0.26603413","9.947956","none","1"
"88137257139038","3","0.01883758","-0.2939984","9.902523","none","1"
"88137276946851","3","0.024679432","-0.26531586","9.904937","none","1"
"88137297140601","3","0.01937388","-0.2801695","9.908644","none","1"
"88137316818726","3","0.022045808","-0.2866817","9.886511","none","1"
"88137337139038","3","0.007297527","-0.2857336","9.870595","none","1"
"88137356818726","3","0.023625983","-0.2712056","9.8551","none","1"
"88137377140601","3","0.030731974","-0.3069558","9.849736","none","1"
"88137396818726","3","-0.014211981","-0.28797457","9.927663","none","1"
"88137417787476","3","0.016529568","-0.30235896","9.851009","none","1"
"88137436917163","3","0.015121778","-0.2890089","9.896519","none","1"
"88137457787476","3","0.0026527755","-0.27351362","9.805472","none","1"
"88137476818726","3","0.016424224","-0.27076504","9.864618","none","1"
"88137497787476","3","-0.04674439","-0.2498972","9.888895","none","1"
"88137516818726","3","0.01796609","-0.26491365","9.917502","none","1"
"88137537787476","3","0.020503942","-0.28254452","9.832699","none","1"
"88137556817163","3","-0.21945253","-0.13447753","9.854064","none","1"
"88137577798413","3","-0.42593804","-0.010007763","9.858471","none","1"
"88137596818726","3","-1.4093133","0.568575","10.014534","none","1"
"88137617787476","3","-2.863494","1.4930625","9.758928","none","1"
"88137636817163","3","-2.593658","1.4324318","9.738855","none","1"
"88137657787476","3","-1.9068284","0.791389","10.059354","none","1"
"88137676818726","3","-1.405224","-0.22582111","9.795704","none","1"
"88137697787476","3","-1.34829","-0.73395693","9.488384","none","1"
"88137716818726","3","-1.1342292","-0.79057497","10.198926","none","1"
"88137737140601","3","-2.3482711","-0.2899953","9.649629","none","1"
"88137756818726","3","-4.1443057","-0.3102598","9.564195","none","1"
"88137777140601","3","-3.9535933","-1.2500032","9.854668","none","1"
"88137796818726","3","-3.053153","-1.8553244","10.425255","none","1"
"88137817140601","3","-1.2669828","-2.3015172","10.2022295","none","1"
"88137836946851","3","-0.74625355","-2.4507432","8.963987","none","1"
"88137857140601","3","0.5117271","-2.3899975","8.791518","none","1"
"88137876946851","3","1.0707827","-3.2054434","10.43756","none","1"
"88137897140601","3","1.2017552","-3.458252","9.727172","none","1"
"88137917787476","3","0.43271846","-2.347036","10.113434","none","1"
"88137936999976","3","-1.3736684","-1.6122842","10.529019","none","1"
"88137956946851","3","-0.4689858","-1.4752113","8.878332","none","1"
"88137977140601","3","2.8591175","-2.1690795","10.76865","none","1"
"88137996946851","3","2.658397","-1.9065506","9.478232","none","1"
"88138017140601","3","1.853227","-1.5514139","9.761993","none","1"
"88138036946851","3","-0.5727984","0.096878976","9.8673","none","1"
"88138057140601","3","-0.3059694","-0.07681557","9.725563","none","1"
"88138076946851","3","-0.3568414","-0.054990023","9.8852","none","1"
"88138097140601","3","-0.31986535","-0.014911088","9.793262","none","1"
"88138116818726","3","-0.32598493","-0.017745823","9.766734","none","1"
"88138137142163","3","-0.3394978","-0.027303476","9.801354","none","1"
"88138156818726","3","-0.31882146","-0.058428098","9.8038435","none","1"
"88138177140601","3","-0.31196448","-0.06467217","9.817243","none","1"
"88138196818726","3","-0.33363682","-0.020187909","9.7918825","none","1"
"88138217787476","3","-0.3177297","-0.04218583","9.78811","none","1"
"88138236818726","3","-0.34675702","-0.020235792","9.781569","none","1"
"88138257787476","3","-0.27879044","-0.06821559","9.782325","none","1"
"88138276818726","3","-0.33232477","-0.028768728","9.566952","none","1"
"88138297787476","3","-0.2644252","-0.107901886","10.025729","none","1"
"88138316818726","3","-0.3703447","-0.08315541","9.867644","none","1"
"88138337787476","3","-0.28709352","-0.009892842","9.723744","none","1"
"88138356818726","3","-0.3371515","-0.005391742","9.828983","none","1"
"88138377787476","3","-0.31007785","-0.02785893","9.83312","none","1"
"88138396818726","3","-3.907232","0.7725323","10.012695","none","1"
"88138417787476","3","-7.678301","1.9266142","9.3824835","none","1"
"88138436818726","3","-4.8976846","1.2650195","9.423319","none","1"
"88138457787476","3","-2.3512497","0.76481336","9.829711","none","1"
"88138476818726","3","-1.1466119","0.28828102","9.642734","none","1"
"88138497139038","3","0.80912524","-1.5632606","10.234225","none","1"
"88138516818726","3","2.4172628","-1.8624208","9.48621","none","1"
"88138537140601","3","0.20435949","-1.074786","9.795723","none","1"
"88138556818726","3","-1.0321691","-0.7704349","9.824282","none","1"
"88138577139038","3","1.3614101","-1.5249916","9.817069","none","1"
"88138596946851","3","2.8313255","-1.506585","10.028497","none","1"
"88138617142163","3","2.7725143","-0.91231537","9.914887","none","1"
"88138636946851","3","2.3992774","-0.6861686","9.954248","none","1"
"88138657140601","3","-0.24557807","0.3273161","11.172476","none","1"
"88138676946851","3","-1.2669924","0.65547496","9.918737","none","1"
"88138697140601","3","-0.4364151","0.29763758","9.466606","none","1"
"88138716946851","3","0.8857876","-0.37191528","9.668505","none","1"
"88138737140601","3","1.257722","-0.7191129","9.975843","none","1"
"88138756946851","3","-0.60148096","0.2939026","9.940046","none","1"
"88138777140601","3","-0.3259562","0.17682615","9.814475","none","1"
"88138796946851","3","-0.34260067","0.14135367","9.72632","none","1"
"88138817140601","3","-0.33560005","0.16491261","9.802887","none","1"
"88138836946851","3","-0.3514688","0.16552553","9.810873","none","1"
"88138857140601","3","-0.30307722","0.13206416","9.788406","none","1"
"88138876818726","3","-0.34586635","0.11996866","9.772681","none","1"
"88138897140601","3","-0.3270192","0.15072936","9.774233","none","1"
"88138917798413","3","-0.3246729","0.123646155","9.846729","none","1"
"88138937140601","3","-0.34603876","0.19209158","9.799478","none","1"
"88138956818726","3","-0.30050105","0.1654968","9.948024","none","1"
"88138977139038","3","-0.3352936","0.15789281","9.814206","none","1"
"88138996818726","3","-0.3063429","0.14651556","9.849611","none","1"
"88139017787476","3","-0.3622523","0.15257768","9.799382","none","1"
"88139036818726","3","-0.3410397","0.14532804","9.766686","none","1"
"88139057787476","3","-0.33284193","0.16016252","9.7727","none","1"
"88139076818726","3","-0.35017595","0.15064317","9.816907","none","1"
"88139097787476","3","-0.3269043","0.12878889","9.825295","none","1"
"88139116818726","3","-0.3311181","0.14118129","9.784384","none","1"
"88139137787476","3","-0.3620512","0.18330966","9.807406","none","1"
"88139156818726","3","-0.3226618","0.16389747","9.762444","none","1"
"88139177787476","3","-0.3411833","0.14308706","9.832814","none","1"
"88139196818726","3","-0.34944808","0.17313908","9.821092","none","1"
"88139217787476","3","-0.3191758","0.16246095","9.796891","none","1"
"88139236818726","3","-0.33041897","0.14935988","9.815471","none","1"
"88139257787476","3","-0.34781045","0.1358087","9.80325","none","1"
"88139276818726","3","-0.32027715","0.16089036","9.868852","none","1"
"88139297140601","3","-0.33341652","0.16299726","9.809121","none","1"
"88139317140601","3","-0.31243375","0.12446018","9.823563","none","1"
"88139337140601","3","-0.34229422","0.14716679","9.831263","none","1"
"88139356818726","3","-0.3450811","0.15382268","9.797849","none","1"
"88139377140601","3","-0.34112585","0.1778413","9.838627","none","1"
"88139396946851","3","-0.36498168","0.18802145","9.850971","none","1"
"88139417142163","3","-0.33062968","0.136345","9.841079","none","1"
"88139436881226","3","-0.4017279","0.25450364","9.818075","none","1"
"88139457140601","3","-0.4052043","0.2450226","9.90918","none","1"
"88139476946851","3","-0.35368106","0.19963811","9.77883","none","1"
"88139497140601","3","-0.32470164","0.18937178","9.803241","none","1"
"88139516946851","3","-0.33028492","0.120141044","9.849066","none","1"
"88139537140601","3","-0.3764068","0.18906532","9.862502","none","1"
"88139556946851","3","-0.36680126","0.19585527","9.874578","none","1"
"88139577140601","3","-0.31384152","0.1627291","9.847208","none","1"
"88139596946851","3","-0.31809363","0.1336635","9.802111","none","1"
"88139617140601","3","-0.3341348","0.14149731","9.861956","none","1"
"88139636946851","3","-0.32717246","0.16138835","9.877883","none","1"
"88139657139038","3","-0.2956456","0.112977594","9.814752","none","1"
"88139676818726","3","-0.33753455","0.16468278","9.840753","none","1"
"88139697139038","3","-0.37381148","0.18463126","9.87273","none","1"
"88139716818726","3","-0.33036155","0.16059348","9.856325","none","1"
"88139737142163","3","-0.33686417","0.1594634","9.852436","none","1"
"88139756818726","3","-0.3353989","0.19081788","9.896538","none","1"
"88139777787476","3","-0.33232477","0.17926826","9.849324","none","1"
"88139796818726","3","-0.31842884","0.15041333","9.82769","none","1"
"88139817787476","3","-0.34599087","0.1695478","9.870796","none","1"
"88139836818726","3","-0.34071404","0.16109146","9.866764","none","1"
"88139857787476","3","-0.33682588","0.16261418","9.844938","none","1"
"88139876818726","3","-0.33881783","0.16097654","9.866218","none","1"
"88139897787476","3","-0.34494698","0.1588888","9.830659","none","1"
"88139917798413","3","-0.35421735","0.17728585","9.888455","none","1"
"88139937799976","3","-0.339833","0.17921078","9.888235","none","1"
"88139956818726","3","-0.34073323","0.16525738","9.869254","none","1"
"88139977787476","3","-0.3537864","0.16707696","9.863613","none","1"
"88139996818726","3","-0.3646465","0.17325401","9.900445","none","1"
"88140017787476","3","-0.34101093","0.18093462","9.880028","none","1"
"88140036818726","3","-0.34023523","0.16818789","9.844948","none","1"
"88140057789038","3","-0.33576286","0.15008773","9.858413","none","1"
"88140076818726","3","-0.36037526","0.17957471","9.908499","none","1"
"88140097140601","3","-0.35148796","0.16633955","9.88497","none","1"
"88140116818726","3","-0.34451604","0.16808254","9.849555","none","1"
"88140137140601","3","-0.35641044","0.17581102","9.90215","none","1"
"88140156818726","3","-0.35537615","0.17683575","9.873401","none","1"
"88140177140601","3","-0.35215834","0.19071253","9.906","none","1"
"88140196946851","3","-0.35500264","0.19216819","9.872567","none","1"
"88140217139038","3","-0.34203565","0.17348386","9.895839","none","1"
"88140236946851","3","-0.36908057","0.18650831","9.901614","none","1"
"88140257139038","3","-0.34336683","0.18621142","9.91641","none","1"
"88140276946851","3","-0.35066438","0.17015113","9.895474","none","1"
"88140297140601","3","-0.36319083","0.19525194","9.92342","none","1"
"88140316946851","3","-0.34602916","0.15524963","9.86571","none","1"
"88140337140601","3","-0.35449508","0.16473065","9.884788","none","1"
"88140356946851","3","-0.35664988","0.1657841","9.893637","none","1"
"88140377140601","3","-0.34023523","0.16635871","9.900953","none","1"
"88140396946851","3","-0.35333627","0.1758206","9.905704","none","1"
"88140417140601","3","-0.35302025","0.1733881","9.894125","none","1"
"88140436946851","3","-0.35051113","0.16785268","9.897801","none","1"
"88140457140601","3","-0.35932177","0.1799482","9.904515","none","1"
"88140476818726","3","-0.36343983","0.1737999","9.901643","none","1"
"88140497140601","3","-0.35351825","0.16651194","9.868545","none","1"
"88140516818726","3","-0.35848862","0.1897357","9.905905","none","1"
"88140537140601","3","-0.33723766","0.18383639","9.906344","none","1"
"88140556818726","3","-0.3566307","0.15862066","9.908088","none","1"
"88140577787476","3","-0.3527138","0.17344554","9.895121","sit down","1"
"88140596818726","3","-0.34452564","0.16398366","9.900369","sit down","1"
"88140617787476","3","-0.3595229","0.16687585","9.898636","sit down","1"
"88140636818726","3","-0.3555581","0.18666154","9.899574","sit down","1"
"88140657787476","3","-0.34806904","0.17962259","9.895398","sit down","1"
"88140676818726","3","-0.35305858","0.16790058","9.886205","sit down","1"
"88140697787476","3","-0.35327885","0.17477672","9.912119","sit down","1"
"88140717142163","3","-0.349812","0.16657898","9.883035","sit down","1"
"88140737798413","3","-0.35777995","0.22415474","9.914236","sit down","1"
"88140756818726","3","-0.2937111","0.18359697","9.992795","sit down","1"
"88140777787476","3","-0.3197217","0.16881038","9.914686","sit down","1"
"88140796818726","3","-0.33509246","0.19094236","10.035497","sit down","1"
"88140817787476","3","-0.36449325","0.17088853","9.931694","sit down","1"
"88140836818726","3","-0.3492853","0.1673547","9.934606","sit down","1"
"88140857140601","3","-0.34817436","0.1771422","9.883677","sit down","1"
"88140876818726","3","-0.3438265","0.18355866","9.912608","sit down","1"
"88140897139038","3","-0.34798285","0.17638563","9.918823","sit down","1"
"88140917798413","3","-0.34271562","0.15427278","9.877413","sit down","1"
"88140937140601","3","-0.33335906","0.17460434","9.909812","sit down","1"
"88140956945288","3","-0.35579753","0.17966089","9.926265","sit down","1"
"88140977139038","3","-0.3374005","0.17329231","9.933485","sit down","1"
"88140996946851","3","-0.35422692","0.17440324","9.902217","sit down","1"
"88141017140601","3","-0.35084632","0.16513288","9.88584","sit down","1"
"88141036946851","3","-0.35657325","0.19122967","9.915194","sit down","1"
"88141057139038","3","-0.341643","0.18446846","9.897505","sit down","1"
"88141076945288","3","-0.35045367","0.17985243","9.905454","sit down","1"
"88141097139038","3","-0.37545872","0.20069157","9.903424","sit down","1"
"88141116946851","3","-0.33583945","0.18324262","9.879855","sit down","1"
"88141137140601","3","-0.3369887","0.17736246","9.925718","sit down","1"
"88141156946851","3","-0.33977553","0.20069157","9.891079","sit down","1"
"88141177140601","3","-0.33870292","0.165583","9.901595","sit down","1"
"88141196946851","3","-0.3491225","0.19227354","9.921428","sit down","1"
"88141217140601","3","-0.3474178","0.17657717","9.89582","sit down","1"
"88141236818726","3","-0.3448704","0.15734693","9.908806","sit down","1"
"88141257140601","3","-0.36230016","0.18367359","9.9038925","sit down","1"
"88141276818726","3","-0.35954204","0.18350118","9.930335","sit down","1"
"88141297140601","3","-0.34136528","0.18169118","9.917205","sit down","1"
"88141316818726","3","-0.34710178","0.1837502","9.904592","sit down","1"
"88141337140601","3","-0.3351595","0.18125065","9.897801","sit down","1"
"88141356818726","3","-0.3432136","0.18912278","9.882633","sit down","1"
"88141377787476","3","-0.34491828","0.2063706","9.950331","sit down","1"
"88141396818726","3","-0.35272336","0.17361793","9.895111","sit down","1"
"88141417787476","3","-0.34926614","0.17434576","9.909495","sit down","1"
"88141438757788","3","-0.34474587","0.18045576","9.917205","sit down","1"
"88141457798413","3","-0.34904587","0.16607141","9.901096","sit down","1"
"88141476818726","3","-0.35880464","0.18580921","9.894095","sit down","1"
"88141497787476","3","-0.36556587","0.1737999","9.892304","sit down","1"
"88141516818726","3","-0.3321524","0.17721881","9.877146","sit down","1"
"88141537787476","3","-0.34865323","0.16841772","9.906116","sit down","1"
"88141556818726","3","-0.34211227","0.1975791","9.924655","sit down","1"
"88141577787476","3","-0.3532214","0.18349162","9.914016","sit down","1"
"88141596818726","3","-0.35222536","0.16377299","9.885314","sit down","1"
"88141617787476","3","-0.34657508","0.15754806","9.879913","sit down","1"
"88141636818726","3","-0.3427252","0.17545667","9.899651","sit down","1"
"88141657140601","3","-0.35498348","0.16583198","9.914954","sit down","1"
"88141676818726","3","-0.35753092","0.1849856","9.88993","sit down","1"
"88141697140601","3","-0.35076013","0.18690096","9.906029","sit down","1"
"88141716818726","3","-0.34757105","0.16977763","9.91188","sit down","1"
"88141737140601","3","-0.33588737","0.17334978","9.8594475","sit down","1"
"88141756946851","3","-0.32792902","0.17166427","9.798988","sit down","1"
"88141777140601","3","-0.44759122","0.26779625","10.052439","sit down","1"
"88141796946851","3","-0.40801987","0.24767539","9.99947","sit down","1"
"88141817140601","3","-0.2796715","0.16982551","9.786453","sit down","1"
"88141836946851","3","-0.35868016","0.15705004","9.92432","sit down","1"
"88141857139038","3","-0.31132284","0.20738576","9.747456","sit down","1"
