"Timestamp","Accuracy","Acceleration X","Acceleration Y","Acceleration Z","Label","Cycle"
"89504964739008","3","-1.7189484","-0.17263794","10.256424","none","0"
"89504984941645","3","-0.6487427","0.728775","9.4088745","none","0"
"89505005174799","3","-0.7277527","0.33972168","9.831451","none","0"
"89505025407954","3","-1.1611023","0.22239685","9.580063","none","0"
"89505045641108","3","-0.85224915","0.39118958","9.604004","none","0"
"89505065904780","3","-0.93006897","0.3253479","9.858978","none","0"
"89505086137934","3","-0.98153687","0.32295227","9.575272","none","0"
"89505106371088","3","-0.91690063","0.34928894","9.733292","none","0"
"89505126604243","3","-0.91929626","0.32295227","9.630341","none","0"
"89505146867914","3","-0.94921875","0.3313446","9.677017","none","0"
"89505167101069","3","-0.9468231","0.34091187","9.723709","none","0"
"89505187334223","3","-0.93963623","0.3253479","9.663849","none","0"
"89505207567377","3","-0.93844604","0.3313446","9.663849","none","0"
"89505227831049","3","-0.9264679","0.32774353","9.696182","none","0"
"89505248064204","3","-0.93844604","0.33372498","9.673431","none","0"
"89505268297358","3","-0.9360504","0.33013916","9.691391","none","0"
"89505288530512","3","-0.93125916","0.33851624","9.691391","none","0"
"89505308763666","3","-0.91929626","0.33493042","9.665054","none","0"
"89505329027338","3","-0.9324646","0.32894897","9.66864","none","0"
"89505349291010","3","-0.93725586","0.32774353","9.671036","none","0"
"89505369524164","3","-0.9240875","0.32894897","9.672226","none","0"
"89505389757319","3","-0.93125916","0.32774353","9.66864","none","0"
"89505409990473","3","-0.9432373","0.33732605","9.698563","none","0"
"89505430254145","3","-0.94802856","0.3421173","9.680618","none","0"
"89505450487299","3","-0.93725586","0.3253479","9.692581","none","0"
"89505470720454","3","-0.9336548","0.3325348","9.66745","none","0"
"89505490953608","3","-0.95999146","0.3361206","9.655472","none","0"
"89505511186762","3","-0.93125916","0.3313446","9.685394","none","0"
"89505531450434","3","-0.9552002","0.33372498","9.716522","none","0"
"89505551683588","3","-0.95280457","0.33372498","9.698563","none","0"
"89505571916743","3","-0.91929626","0.3325348","9.656677","none","0"
"89505592149897","3","-0.92767334","0.32894897","9.675827","none","0"
"89505612383051","3","-0.9444275","0.33493042","9.685394","none","0"
"89505632646723","3","-0.93006897","0.33493042","9.660263","none","0"
"89505652910395","3","-0.93963623","0.3253479","9.656677","none","0"
"89505673143549","3","-0.93844604","0.3325348","9.704559","none","0"
"89505693376704","3","-0.9252777","0.33851624","9.684204","none","0"
"89505713609858","3","-0.94203186","0.33013916","9.727295","none","0"
"89505733873530","3","-0.9288635","0.33732605","9.657867","none","0"
"89505754106684","3","-0.93006897","0.32894897","9.671036","none","0"
"89505774339838","3","-0.93844604","0.33851624","9.690186","none","0"
"89505794603510","3","-0.9348602","0.32894897","9.68779","none","0"
"89505814836664","3","-0.93963623","0.33972168","9.633926","none","0"
"89505835069819","3","-0.9240875","0.35289","9.632736","none","0"
"89505855302973","3","-0.90971375","0.36366272","9.785965","none","0"
"89505875536127","3","-1.0042877","0.3421173","9.94278","none","0"
"89505895769282","3","-0.93125916","0.31098938","9.360992","none","0"
"89505916032954","3","-0.8678131","0.29782104","9.418442","none","0"
"89505936296625","3","-0.9755554","0.37683105","10.090027","none","0"
"89505956529780","3","-1.0102692","0.34091187","9.790741","none","0"
"89505976762934","3","-0.8857727","0.31098938","9.523788","none","0"
"89505996996088","3","-0.89056396","0.34809875","9.568085","none","0"
"89506017229243","3","-0.9719696","0.31578064","9.739273","none","0"
"89506037492914","3","-0.93725586","0.36964417","9.820679","none","0"
"89506057756586","3","-0.9360504","0.3073883","9.648285","none","0"
"89506077989741","3","-0.90133667","0.32055664","9.50943","none","0"
"89506098222895","3","-0.94921875","0.35049438","9.729691","none","0"
"89506118456049","3","-0.98753357","0.3421173","9.777573","none","0"
"89506138689204","3","-0.91329956","0.34449768","9.633926","none","0"
"89506158922358","3","-0.9288635","0.33851624","9.642303","none","0"
"89506179155512","3","-0.9552002","0.3145752","9.64949","none","0"
"89506199419184","3","-0.95401","0.34449768","9.724899","none","0"
"89506219682856","3","-0.93725586","0.33851624","9.717728","none","0"
"89506239916010","3","-0.92048645","0.33972168","9.641113","none","0"
"89506260149164","3","-0.94203186","0.3433075","9.636322","none","0"
"89506280382319","3","-0.94563293","0.32774353","9.787155","none","0"
"89506300615473","3","-0.93725586","0.33372498","9.7057495","none","0"
"89506320848627","3","-0.9360504","0.32295227","9.60759","none","0"
"89506341112299","3","-0.93844604","0.32894897","9.66745","none","0"
"89506361345454","3","-0.9432373","0.32655334","9.726105","none","0"
"89506381578608","3","-0.9324646","0.32894897","9.735687","none","0"
"89506401811762","3","-0.9336548","0.3540802","9.637512","none","0"
"89506422044916","3","-0.9444275","0.3468933","9.632736","none","0"
"89506442308588","3","-0.94921875","0.33972168","9.74646","none","0"
"89506462541743","3","-0.93006897","0.32774353","9.706955","none","0"
"89506482805414","3","-0.9252777","0.31936646","9.642303","none","0"
"89506503038569","3","-0.9324646","0.33972168","9.656677","none","0"
"89506523271723","3","-0.9324646","0.34570312","9.700958","none","0"
"89506543504877","3","-0.9348602","0.3433075","9.700958","none","0"
"89506563768549","3","-0.95401","0.33493042","9.653076","none","0"
"89506584001704","3","-0.93006897","0.33493042","9.6662445","none","0"
"89506604234858","3","-0.93844604","0.34928894","9.6866","none","0"
"89506624468012","3","-0.9504242","0.33013916","9.684204","none","0"
"89506644731684","3","-0.93725586","0.34570312","9.7285","none","0"
"89506664964838","3","-0.9432373","0.3313446","9.669846","none","0"
"89506685197993","3","-0.9336548","0.32055664","9.647095","none","0"
"89506705431147","3","-0.9336548","0.33013916","9.673431","none","0"
"89506725664301","3","-0.9444275","0.33732605","9.703354","none","0"
"89506745897455","3","-0.9264679","0.33013916","9.677017","none","0"
"89506766161127","3","-0.9288635","0.33493042","9.663849","none","0"
"89506786394282","3","-0.94563293","0.3253479","9.643509","none","0"
"89506806657954","3","-0.93006897","0.3325348","9.66864","none","0"
"89506826891108","3","-0.92767334","0.33972168","9.651886","none","0"
"89506847124262","3","-0.93963623","0.32894897","9.68779","none","0"
"89506867357416","3","-0.92767334","0.34091187","9.717728","none","0"
"89506887590571","3","-0.94921875","0.33732605","9.74765","none","0"
"89506907823725","3","-0.94921875","0.3433075","9.709351","none","0"
"89506928087397","3","-0.94203186","0.3325348","9.60878","none","0"
"89506948320551","3","-0.9288635","0.33372498","9.60759","none","0"
"89506968553705","3","-0.94203186","0.33851624","9.723709","none","0"
"89506988786860","3","-0.95401","0.3361206","9.722519","none","0"
"89507009020014","3","-0.9348602","0.32055664","9.644699","none","0"
"89507029283686","3","-0.93125916","0.32774353","9.644699","none","0"
"89507049516840","3","-0.9516144","0.33493042","9.702164","none","0"
"89507069780512","3","-0.94203186","0.3468933","9.709351","none","0"
"89507090013666","3","-0.9348602","0.34809875","9.700958","none","0"
"89507110246821","3","-0.9288635","0.32295227","9.650681","none","0"
"89507130510493","3","-0.9324646","0.33013916","9.665054","none","0"
"89507150743647","3","-0.95640564","0.34928894","9.704559","none","0"
"89507170976801","3","-0.94802856","0.33851624","9.683014","none","0"
"89507191209955","3","-0.94203186","0.3313446","9.672226","none","0"
"89507211443110","3","-0.94203186","0.3253479","9.688995","none","0"
"89507231706782","3","-0.93006897","0.33732605","9.66864","none","0"
"89507251939936","3","-0.93006897","0.33972168","9.672226","none","0"
"89507272173090","3","-0.93725586","0.32774353","9.677017","none","0"
"89507292406245","3","-0.94203186","0.3421173","9.66745","none","0"
"89507312639399","3","-0.9432373","0.33732605","9.6866","none","0"
"89507332872553","3","-0.93725586","0.33013916","9.6866","none","0"
"89507353136225","3","-0.9264679","0.33493042","9.66864","none","0"
"89507373399897","3","-0.9408417","0.33493042","9.672226","none","0"
"89507393633051","3","-0.9408417","0.3361206","9.675827","none","0"
"89507413866205","3","-0.9432373","0.33972168","9.678223","none","0"
"89507434129877","3","-0.93844604","0.3361206","9.675827","none","0"
"89507454363032","3","-0.9348602","0.33732605","9.661453","none","0"
"89507474596186","3","-0.93125916","0.33851624","9.685394","none","0"
"89507494859858","3","-0.9468231","0.34091187","9.693787","none","0"
"89507515093012","3","-0.9360504","0.34449768","9.671036","none","0"
"89507535326166","3","-0.93725586","0.3433075","9.672226","none","0"
"89507555559321","3","-0.9360504","0.33372498","9.694977","none","0"
"89507575792475","3","-0.9360504","0.3253479","9.704559","none","0"
"89507596025629","3","-0.94802856","0.32894897","9.693787","none","0"
"89507616258784","3","-0.93963623","0.34449768","9.669846","none","0"
"89507636522455","3","-0.93725586","0.33851624","9.683014","none","0"
"89507656786127","3","-0.93844604","0.33372498","9.679413","none","0"
"89507677019282","3","-0.93963623","0.34091187","9.677017","none","0"
"89507697252436","3","-0.9432373","0.32894897","9.6866","none","0"
"89507717485590","3","-0.94563293","0.3325348","9.680618","none","0"
"89507737718745","3","-0.93844604","0.3313446","9.677017","none","0"
"89507757982416","3","-0.93844604","0.32774353","9.685394","none","0"
"89507778215571","3","-0.93725586","0.3361206","9.671036","none","0"
"89507798448725","3","-0.9264679","0.34449768","9.681808","none","0"
"89507818681879","3","-0.93725586","0.33372498","9.685394","none","0"
"89507838915034","3","-0.9360504","0.33851624","9.669846","none","0"
"89507859178705","3","-0.9228821","0.33972168","9.677017","none","0"
"89507879411860","3","-0.9360504","0.3468933","9.661453","none","0"
"89507899645014","3","-0.93963623","0.33732605","9.681808","none","0"
"89507919908686","3","-0.93844604","0.33013916","9.697372","none","0"
"89507940141840","3","-0.9348602","0.33372498","9.690186","none","0"
"89507960374995","3","-0.94802856","0.33851624","9.66745","none","0"
"89507980638666","3","-0.93963623","0.34091187","9.679413","none","0"
"89508000871821","3","-0.94203186","0.34570312","9.680618","none","0"
"89508021104975","3","-0.9336548","0.34091187","9.669846","none","0"
"89508041338129","3","-0.9408417","0.3325348","9.681808","none","0"
"89508061571284","3","-0.9360504","0.3361206","9.66864","none","0"
"89508081804438","3","-0.9360504","0.33013916","9.679413","none","0"
"89508102068110","3","-0.9216919","0.3313446","9.703354","none","0"
"89508122301264","3","-0.93006897","0.3325348","9.671036","none","0"
"89508142534418","3","-0.9360504","0.3421173","9.680618","none","0"
"89508162767573","3","-0.9444275","0.33851624","9.6866","none","0"
"89508183000727","3","-0.93125916","0.33732605","9.673431","none","0"
"89508203264399","3","-0.9360504","0.32894897","9.681808","none","0"
"89508223528071","3","-0.93963623","0.32894897","9.696182","none","0"
"89508243791743","3","-0.93963623","0.32655334","9.677017","none","0"
"89508264024897","3","-0.9348602","0.3421173","9.684204","none","0"
"89508284258051","3","-0.9360504","0.33372498","9.683014","none","0"
"89508304491205","3","-0.9444275","0.3361206","9.699768","none","0"
"89508324724360","3","-0.94802856","0.3241577","9.679413","none","0"
"89508344988032","3","-0.93844604","0.33493042","9.678223","none","0"
"89508365221186","3","-0.93725586","0.3468933","9.684204","none","0"
"89508385454340","3","-0.94563293","0.3433075","9.677017","none","0"
"89508405687495","3","-0.93963623","0.32655334","9.665054","none","0"
"89508425920649","3","-0.93963623","0.33372498","9.655472","none","0"
"89508446153803","3","-0.9324646","0.3540802","9.657867","none","0"
"89508466386957","3","-0.93725586","0.34928894","9.678223","none","0"
"89508486650629","3","-0.92767334","0.3313446","9.681808","none","0"
"89508506914301","3","-0.9288635","0.3325348","9.661453","none","0"
"89508527147455","3","-0.9360504","0.3361206","9.68779","none","0"
"89508547380610","3","-0.93963623","0.3433075","9.68779","none","0"
"89508567613764","3","-0.93125916","0.33851624","9.681808","none","0"
"89508587846918","3","-0.9432373","0.34091187","9.678223","none","0"
"89508608110590","3","-0.94563293","0.33493042","9.694977","none","0"
"89508628343745","3","-0.9468231","0.34449768","9.692581","none","0"
"89508648576899","3","-0.9324646","0.34570312","9.685394","none","0"
"89508668810053","3","-0.9408417","0.33972168","9.685394","none","0"
"89508689043207","3","-0.9444275","0.34570312","9.679413","none","0"
"89508709276362","3","-0.93725586","0.34449768","9.677017","none","0"
"89508729540034","3","-0.9324646","0.35289","9.657867","none","0"
"89508749773188","3","-0.95880127","0.3361206","9.673431","none","0"
"89508770036860","3","-0.93844604","0.34091187","9.68779","none","0"
"89508790270014","3","-0.93725586","0.34570312","9.671036","none","0"
"89508810503168","3","-0.93006897","0.34091187","9.665054","none","0"
"89508830766840","3","-0.9348602","0.32894897","9.681808","none","0"
"89508850999995","3","-0.9516144","0.33493042","9.680618","none","0"
"89508871233149","3","-0.95280457","0.3361206","9.677017","none","0"
"89508891466303","3","-0.9504242","0.3421173","9.674622","none","0"
"89508911699457","3","-0.9444275","0.33851624","9.66864","sit down","0"
"89508931932612","3","-0.9324646","0.33732605","9.684204","sit down","0"
"89508952196284","3","-0.9432373","0.3313446","9.675827","sit down","0"
"89508972429438","3","-0.94802856","0.33493042","9.683014","sit down","0"
"89508992662592","3","-0.9432373","0.33851624","9.669846","sit down","0"
"89509012895746","3","-0.9324646","0.33972168","9.692581","sit down","0"
"89509033128901","3","-0.93125916","0.32894897","9.677017","sit down","0"
"89509053392573","3","-0.9336548","0.32774353","9.694977","sit down","0"
"89509073656245","3","-0.9288635","0.32655334","9.680618","sit down","0"
"89509093889399","3","-0.94203186","0.3433075","9.672226","sit down","0"
"89509114122553","3","-0.9348602","0.34091187","9.673431","sit down","0"
"89509134355707","3","-0.95280457","0.3313446","9.685394","sit down","0"
"89509154619379","3","-0.95280457","0.34809875","9.674622","sit down","0"
"89509174852534","3","-0.9252777","0.32774353","9.680618","sit down","0"
"89509195085688","3","-0.9264679","0.33372498","9.6866","sit down","0"
"89509215318842","3","-0.93844604","0.33851624","9.66745","sit down","0"
"89509235582514","3","-0.9336548","0.3361206","9.672226","sit down","0"
"89509255815668","3","-0.9348602","0.33372498","9.692581","sit down","0"
"89509276048823","3","-0.93725586","0.33972168","9.702164","sit down","0"
"89509296281977","3","-0.93963623","0.34091187","9.66745","sit down","0"
"89509316515131","3","-0.93725586","0.313385","9.673431","sit down","0"
"89509336778803","3","-0.93963623","0.33493042","9.697372","sit down","0"
"89509357042475","3","-0.9516144","0.32774353","9.663849","sit down","0"
"89509377275629","3","-0.92048645","0.31817627","9.677017","sit down","0"
"89509397508784","3","-0.92767334","0.3433075","9.672226","sit down","0"
"89509417772455","3","-0.9444275","0.33013916","9.680618","sit down","0"
"89509438005610","3","-0.94203186","0.32655334","9.6866","sit down","0"
"89509458238764","3","-0.93125916","0.32655334","9.663849","sit down","0"
"89509478471918","3","-0.93725586","0.33972168","9.660263","sit down","0"
"89509498705073","3","-0.93125916","0.34449768","9.663849","sit down","0"
"89509518968745","3","-0.9360504","0.3468933","9.722519","sit down","0"
"89509539201899","3","-0.9468231","0.3313446","9.733292","sit down","0"
"89509559435053","3","-0.94563293","0.32894897","9.642303","sit down","0"
"89509579668207","3","-0.9468231","0.32295227","9.662659","sit down","0"
"89509599901362","3","-0.93844604","0.3313446","9.661453","sit down","0"
"89509620165034","3","-0.9324646","0.34449768","9.720123","sit down","0"
"89509640428705","3","-0.9360504","0.32894897","9.698563","sit down","0"
"89509660661860","3","-0.93125916","0.31697083","9.615967","sit down","0"
"89509680895014","3","-0.94563293","0.3433075","9.674622","sit down","0"
"89509701128168","3","-0.94802856","0.3433075","9.692581","sit down","0"
"89509721391840","3","-0.91690063","0.35528564","9.631531","sit down","0"
"89509741624995","3","-0.9216919","0.35168457","9.718918","sit down","0"
"89509761858149","3","-0.98753357","0.3253479","9.7608185","sit down","0"
"89509782091303","3","-0.93725586","0.30859375","9.502243","sit down","0"
"89509802324457","3","-0.8570404","0.38520813","9.615967","sit down","0"
"89509822588129","3","-1.0222473","0.34928894","10.074463","sit down","0"
"89509842821284","3","-0.9444275","0.28105164","9.366974","sit down","0"
"89509863054438","3","-0.85824585","0.29542542","9.41127","sit down","0"
"89509883287592","3","-0.9755554","0.4007721","10.119949","sit down","0"
"89509903520746","3","-1.024643","0.34570312","9.722519","sit down","0"
"89509923784418","3","-0.8785858","0.32295227","9.497452","sit down","0"
"89509944048090","3","-0.9121094","0.31936646","9.58844","sit down","0"
"89509964281245","3","-0.98513794","0.30859375","9.763214","sit down","0"
"89509984514399","3","-0.9324646","0.3935852","9.831451","sit down","0"
"89510004747553","3","-0.95640564","0.33732605","9.630341","sit down","0"
"89510024980707","3","-0.9061279","0.30978394","9.483093","sit down","0"
"89510045244379","3","-0.9408417","0.35289","9.756027","sit down","0"
"89510065477534","3","-1.0054779","0.35647583","9.862579","sit down","0"
"89510085710688","3","-0.91329956","0.36006165","9.540558","sit down","0"
"89510105943842","3","-0.9216919","0.32655334","9.514221","sit down","0"
"89510126207514","3","-0.93125916","0.29542542","9.716522","sit down","0"
"89510146440668","3","-0.97076416","0.3145752","9.84462","sit down","0"
"89510166673823","3","-1.0234375","0.35887146","9.959534","sit down","0"
"89510186906977","3","-0.84747314","0.34809875","9.0772705","sit down","0"
"89510207170649","3","-0.9432373","0.32295227","9.852997","sit down","0"
"89510227403803","3","-1.0210419","0.35647583","10.00383","sit down","0"
"89510247636957","3","-0.9635773","0.27388","9.571671","sit down","0"
"89510267900629","3","-0.8163452","0.3899994","9.535767","sit down","0"
"89510288133784","3","-1.0066833","0.33851624","9.7668","sit down","0"
"89510308366938","3","-0.9827423","0.31697083","9.754837","sit down","0"
"89510328600092","3","-0.89175415","0.3253479","9.679413","sit down","0"
"89510348833246","3","-0.92767334","0.33972168","9.49147","sit down","0"
"89510369066401","3","-0.93125916","0.35766602","9.706955","sit down","0"
"89510389299555","3","-0.9923096","0.34928894","9.82785","sit down","0"
"89510409532709","3","-0.94802856","0.2930298","9.661453","sit down","0"
"89510429796381","3","-0.85943604","0.32774353","9.456757","sit down","0"
"89510450060053","3","-0.95880127","0.3720398","9.723709","sit down","0"
"89510470293207","3","-1.0366058","0.33372498","10.0924225","sit down","0"
"89510490526362","3","-0.85943604","0.32894897","9.072479","sit down","0"
"89510510759516","3","-0.90852356","0.30619812","9.947571","sit down","0"
"89510530992670","3","-0.969574","0.38520813","9.789551","sit down","0"
"89510551256342","3","-1.0030823","0.31697083","9.60759","sit down","0"
"89510571489496","3","-0.8247223","0.3756256","9.678223","sit down","0"
"89510591722651","3","-0.9719696","0.31936646","9.677017","sit down","0"
"89510611955805","3","-0.94563293","0.32894897","9.722519","sit down","0"
"89510632188959","3","-0.93125916","0.36724854","9.711731","sit down","0"
"89510652452631","3","-1.068924","0.31217957","9.551331","sit down","0"
"89510672685786","3","-0.87020874","0.3540802","9.690186","sit down","0"
"89510692918940","3","-0.8319092","0.35289","9.951157","sit down","0"
"89510713152094","3","-0.9348602","0.3038025","9.389725","sit down","0"
"89510733385248","3","-1.0054779","0.34928894","9.623154","sit down","0"
"89510753648920","3","-1.009079","0.31098938","9.688995","sit down","0"
"89510773912592","3","-0.98153687","0.33013916","9.805115","sit down","0"
"89510794145746","3","-0.8031769","0.39479065","9.690186","sit down","0"
"89510814378901","3","-0.91690063","0.34809875","9.568085","sit down","0"
"89510834612055","3","-0.9635773","0.35766602","9.554916","sit down","0"
"89510854875727","3","-0.9635773","0.35168457","9.751236","sit down","0"
"89510875108881","3","-0.9635773","0.27148438","9.793137","sit down","0"
"89510895342036","3","-0.94563293","0.34928894","9.428024","sit down","0"
"89510915575190","3","-0.9827423","0.34570312","9.450775","sit down","0"
"89510935808344","3","-0.9360504","0.2918396","9.987076","sit down","0"
"89510956041498","3","-1.0401917","0.27627563","9.955948","sit down","0"
"89510976305170","3","-1.1790619","0.23316956","9.52739","sit down","0"
"89510996538325","3","-1.0437927","0.2750702","9.362183","sit down","0"
"89511016771479","3","-0.9468231","0.34091187","9.5872345","sit down","0"
"89511037004633","3","-1.0390015","0.3325348","9.92482","sit down","0"
"89511057237787","3","-1.0437927","0.2966156","9.819473","sit down","0"
"89511077501459","3","-0.6655121","0.29063416","9.198181","sit down","0"
"89511097765131","3","-0.56973267","0.4809723","9.721313","sit down","0"
"89511117998286","3","-1.1886444","-0.051742554","10.231277","sit down","0"
"89511138231440","3","-0.9408417","0.3145752","9.524994","sit down","0"
"89511158464594","3","-0.23335266","0.61146545","9.605194","sit down","0"
"89511178697748","3","-0.56973267","0.17211914","9.679413","sit down","0"
"89511198961420","3","-0.8031769","0.11705017","9.742859","sit down","0"
"89511219194575","3","-0.50868225","0.32055664","9.744064","sit down","0"
"89511239427729","3","-0.4165039","0.26908875","9.710541","sit down","0"
"89511259660883","3","-0.5817108","0.19606018","9.730896","sit down","0"
"89511279894037","3","-0.57333374","0.22958374","9.683014","sit down","0"
"89511300127192","3","-0.46200562","0.22718811","9.752441","sit down","0"
"89511320390864","3","-0.4703827","0.24394226","9.76561","sit down","0"
"89511340624018","3","-0.47517395","0.2571106","9.706955","sit down","0"
"89511360887690","3","-0.503891","0.27148438","9.699768","sit down","0"
"89511381120844","3","-0.56733704","0.32894897","9.720123","sit down","0"
"89511401384516","3","-0.45840454","0.30619812","9.733292","sit down","0"
"89511421617670","3","-0.44284058","0.27148438","9.736877","sit down","0"
"89511441850825","3","-0.52664185","0.28225708","9.711731","sit down","0"
"89511462083979","3","-0.5410156","0.27627563","9.738068","sit down","0"
"89511482317133","3","-0.5290375","0.2678833","9.794342","sit down","0"
"89511502580805","3","-0.5398102","0.28344727","9.691391","sit down","0"
"89511522844477","3","-0.58410645","0.2559204","9.643509","sit down","0"
"89511543077631","3","-0.582901","0.21760559","9.739273","sit down","0"
"89511563310786","3","-0.5493927","0.24873352","9.7285","sit down","0"
"89511583543940","3","-0.53022766","0.27388","9.660263","sit down","0"
"89511603777094","3","-0.43925476","0.2571106","9.615967","sit down","0"
"89511624010248","3","-0.5134735","0.3073883","9.773987","sit down","0"
"89511644273920","3","-0.59606934","0.27027893","9.716522","sit down","0"
"89511664507075","3","-0.6200104","0.23077393","9.754837","sit down","0"
"89511684770746","3","-0.5134735","0.26190186","9.809906","sit down","0"
"89511705003901","3","-0.50509644","0.31098938","9.735687","sit down","0"
"89511725237055","3","-0.47994995","0.2642975","9.644699","sit down","0"
"89511745470209","3","-0.52305603","0.24156189","9.663849","sit down","0"
"89511765703364","3","-0.6008606","0.22000122","9.68779","sit down","0"
"89511785936518","3","-0.60206604","0.22239685","9.730896","sit down","0"
"89511806200190","3","-0.5003052","0.25112915","9.5872345","sit down","0"
"89511826433344","3","-0.499115","0.25473022","9.60878","sit down","0"
"89511846666498","3","-0.5817108","0.28344727","9.772797","sit down","0"
"89511866899653","3","-0.53022766","0.2858429","9.738068","sit down","0"
"89511887163325","3","-0.53022766","0.27746582","9.706955","sit down","0"
"89511907396479","3","-0.5865021","0.29063416","9.635117","sit down","0"
"89511927660151","3","-0.65353394","0.2523346","9.721313","sit down","0"
"89511947893305","3","-0.61402893","0.2523346","9.706955","sit down","0"
"89511968126459","3","-0.5793152","0.21760559","9.665054","sit down","0"
"89511988390131","3","-0.57691956","0.22479248","9.718918","sit down","0"
"89512008623286","3","-0.55178833","0.24754333","9.715332","sit down","0"
"89512028856440","3","-0.5936737","0.29421997","9.742859","sit down","0"
"89512049089594","3","-0.5793152","0.2918396","9.681808","sit down","0"
"89512069322748","3","-0.53022766","0.25352478","9.714127","sit down","0"
"89512089586420","3","-0.5170593","0.25473022","9.702164","sit down","0"
"89512109819575","3","-0.5613556","0.25950623","9.68779","sit down","0"
"89512130052729","3","-0.56256104","0.27627563","9.653076","sit down","0"
"89512150285883","3","-0.5493927","0.2559204","9.685394","sit down","0"
"89512170519037","3","-0.58410645","0.24993896","9.7057495","sit down","0"
"89512190782709","3","-0.6104431","0.26071167","9.671036","sit down","0"
"89512211046381","3","-0.61283875","0.2631073","9.675827","sit down","0"
"89512231279536","3","-0.6116333","0.26550293","9.702164","sit down","0"
"89512251512690","3","-0.6104431","0.26908875","9.692581","sit down","0"
"89512271745844","3","-0.59606934","0.2642975","9.7057495","sit down","0"
"89512291978998","3","-0.5900879","0.27986145","9.700958","sit down","0"
"89512312242670","3","-0.5805054","0.2559204","9.691391","sit down","0"
"89512332475825","3","-0.5541687","0.24873352","9.711731","sit down","0"
"89512352708979","3","-0.5350189","0.26190186","9.710541","sit down","0"
"89512372942133","3","-0.5505829","0.25473022","9.700958","sit down","0"
"89512393205805","3","-0.5410156","0.25473022","9.7057495","sit down","0"
"89512413438959","3","-0.5541687","0.2642975","9.716522","sit down","0"
"89512433672114","3","-0.5745239","0.25950623","9.715332","sit down","0"
"89512453905268","3","-0.5613556","0.2631073","9.693787","sit down","0"
"89512474168940","3","-0.56733704","0.26669312","9.696182","sit down","0"
"89512494432612","3","-0.582901","0.27267456","9.700958","sit down","0"
"89512514665766","3","-0.5865021","0.26190186","9.680618","sit down","0"
"89512534898920","3","-0.5745239","0.25831604","9.675827","sit down","0"
"89512555162592","3","-0.56256104","0.2678833","9.674622","sit down","0"
"89512575395746","3","-0.582901","0.25950623","9.681808","sit down","0"
"89512595628901","3","-0.578125","0.24633789","9.690186","sit down","0"
"89512615862055","3","-0.5721283","0.25950623","9.708145","sit down","0"
"89512636125727","3","-0.56973267","0.2642975","9.702164","sit down","0"
"89512656358881","3","-0.56614685","0.26669312","9.710541","sit down","0"
"89512676592036","3","-0.56495667","0.26669312","9.68779","sit down","0"
"89512696825190","3","-0.5529785","0.26550293","9.691391","sit down","0"
"89512717058344","3","-0.5637512","0.26190186","9.706955","sit down","0"
"89512737322016","3","-0.5709381","0.25112915","9.710541","sit down","0"
"89512757555170","3","-0.55537415","0.2571106","9.702164","sit down","0"
"89512777818842","3","-0.5709381","0.27027893","9.7057495","sit down","0"
"89512798051996","3","-0.56733704","0.25473022","9.6866","sit down","0"
"89512818315668","3","-0.56973267","0.2559204","9.700958","sit down","0"
"89512838548823","3","-0.5721283","0.26908875","9.7057495","sit down","0"
"89512858781977","3","-0.5613556","0.26908875","9.7057495","sit down","0"
"89512879015131","3","-0.5613556","0.2631073","9.690186","sit down","0"
"89512899278803","3","-0.5745239","0.2523346","9.696182","sit down","0"
"89512919511957","3","-0.5601654","0.2642975","9.694977","lay down","0"
"89512939745112","3","-0.5637512","0.25831604","9.703354","lay down","0"
"89512959978266","3","-0.55895996","0.27986145","9.699768","lay down","0"
"89512980241938","3","-0.5613556","0.26669312","9.703354","lay down","0"
"89513000475092","3","-0.5745239","0.25831604","9.697372","lay down","0"
"89513020708246","3","-0.56614685","0.2678833","9.711731","lay down","0"
"89513040941401","3","-0.5709381","0.27148438","9.692581","lay down","0"
"89513061205073","3","-0.5745239","0.26190186","9.679413","lay down","0"
"89513081468745","3","-0.5721283","0.2571106","9.699768","lay down","0"
"89513101701899","3","-0.56733704","0.26071167","9.702164","lay down","0"
"89513121935053","3","-0.5721283","0.26908875","9.700958","lay down","0"
"89513142198725","3","-0.55656433","0.26190186","9.688995","lay down","0"
"89513162431879","3","-0.5685425","0.2523346","9.716522","lay down","0"
"89513182665034","3","-0.55537415","0.24754333","9.68779","lay down","0"
"89513202898188","3","-0.5817108","0.21760559","9.718918","lay down","0"
"89513223161860","3","-0.56495667","0.24993896","9.699768","lay down","0"
"89513243395014","3","-0.56256104","0.28225708","9.6866","lay down","0"
"89513263628168","3","-0.5577698","0.22599792","9.708145","lay down","0"
"89513283861323","3","-0.5613556","0.21760559","9.726105","lay down","0"
"89513304094477","3","-0.5457916","0.23916626","9.702164","lay down","0"
"89513324327631","3","-0.5278473","0.2750702","9.716522","lay down","0"
"89513344591303","3","-0.5314331","0.33013916","9.684204","lay down","0"
"89513364854975","3","-0.5721283","0.33013916","9.690186","lay down","0"
"89513385088129","3","-0.5410156","0.30021667","9.708145","lay down","0"
"89513405321284","3","-0.57572937","0.28704834","9.700958","lay down","0"
"89513425554438","3","-0.58529663","0.29901123","9.678223","lay down","0"
"89513445818110","3","-0.5577698","0.2858429","9.716522","lay down","0"
"89513466051264","3","-0.543396","0.2559204","9.718918","lay down","0"
"89513486284418","3","-0.582901","0.2571106","9.6866","lay down","0"
"89513506517573","3","-0.5493927","0.2451477","9.680618","lay down","0"
"89513526750727","3","-0.5469971","0.2523346","9.718918","lay down","0"
"89513547014399","3","-0.5805054","0.2678833","9.703354","lay down","0"
"89513567247553","3","-0.56614685","0.27746582","9.715332","lay down","0"
"89513587480707","3","-0.57572937","0.2523346","9.68779","lay down","0"
"89513607713862","3","-0.56973267","0.27267456","9.708145","lay down","0"
"89513627977534","3","-0.56256104","0.26908875","9.710541","lay down","0"
"89513648241205","3","-0.55656433","0.3073883","9.672226","lay down","0"
"89513668474360","3","-0.56256104","0.28344727","9.6866","lay down","0"
"89513688707514","3","-0.578125","0.2559204","9.673431","lay down","0"
"89513708940668","3","-0.5529785","0.25352478","9.669846","lay down","0"
"89513729204340","3","-0.5805054","0.2678833","9.715332","lay down","0"
"89513749437495","3","-0.59846497","0.26669312","9.718918","lay down","0"
"89513769670649","3","-0.5601654","0.23916626","9.717728","lay down","0"
"89513789903803","3","-0.48713684","0.22000122","9.712936","lay down","0"
"89513810167475","3","-0.5398102","0.2858429","9.66864","lay down","0"
"89513830400629","3","-0.5721283","0.29063416","9.703354","lay down","0"
"89513850633784","3","-0.53022766","0.313385","9.708145","lay down","0"
"89513870866938","3","-0.6008606","0.27986145","9.697372","lay down","0"
"89513891130610","3","-0.5817108","0.27027893","9.730896","lay down","0"
"89513911363764","3","-0.4739685","0.27627563","9.709351","lay down","0"
"89513931627436","3","-0.48234558","0.28105164","9.711731","lay down","0"
"89513951860590","3","-0.53741455","0.31936646","9.730896","lay down","0"
"89513972093745","3","-0.49790955","0.30619812","9.68779","lay down","0"
"89513992357416","3","-0.47875977","0.20205688","9.699768","lay down","0"
"89514012590571","3","-0.46678162","0.234375","9.724899","lay down","0"
"89514032823725","3","-0.48594666","0.2571106","9.709351","lay down","0"
"89514053056879","3","-0.6080475","0.28944397","9.726105","lay down","0"
"89514073320551","3","-0.5900879","0.28105164","9.665054","lay down","0"
"89514093553705","3","-0.6990204","0.25112915","9.710541","lay down","0"
"89514113786860","3","-0.60565186","0.1374054","9.683014","lay down","0"
"89514134020014","3","-0.6762848","0.024871826","9.665054","lay down","0"
"89514154283686","3","-0.81874084","0.115859985","9.803909","lay down","0"
"89514174516840","3","-0.71099854","0.22479248","9.794342","lay down","0"
"89514194749995","3","-0.13279724","0.23916626","9.866165","lay down","0"
"89514215013666","3","0.15809631","0.35647583","9.535767","lay down","0"
"89514235246821","3","-0.6188202","0.22839355","9.466339","lay down","0"
"89514255510493","3","-0.8091583","0.09550476","9.849411","lay down","0"
"89514275743647","3","-0.5505829","0.22958374","9.68779","lay down","0"
"89514295976801","3","-0.914505","0.25473022","9.867355","lay down","0"
"89514316209955","3","-1.1455383","0.42829895","9.711731","lay down","0"
"89514336473627","3","-0.73612976","0.40795898","9.406479","lay down","0"
"89514356706782","3","-0.677475","0.3026123","9.564499","lay down","0"
"89514376939936","3","-0.8558502","0.32774353","9.90567","lay down","0"
"89514397173090","3","-1.0258331","0.5480194","9.758423","lay down","0"
"89514417436762","3","-0.31115723","0.3241577","9.467529","lay down","0"
"89514437669916","3","0.12817383","0.005722046","9.321487","lay down","0"
"89514457903071","3","-0.035827637","-0.04095459","9.611176","lay down","0"
"89514478136225","3","0.28858948","-0.19180298","9.983475","lay down","0"
"89514498399897","3","0.07191467","-0.018218994","9.711731","lay down","0"
"89514518663569","3","-1.092865","0.39717102","9.485489","lay down","0"
"89514538896723","3","-1.1587067","0.3756256","9.74765","lay down","0"
"89514559129877","3","-0.7385254","0.18528748","9.744064","lay down","0"
"89514579393549","3","-0.8654175","0.1481781","9.711731","lay down","0"
"89514599626704","3","-1.127594","0.2966156","9.709351","lay down","0"
"89514619859858","3","-0.5924835","0.28823853","9.995453","lay down","0"
"89514640093012","3","0.0970459","0.04043579","9.971512","lay down","0"
"89514660356684","3","-0.08970642","-0.06011963","9.926025","lay down","0"
"89514680589838","3","-0.3841858","-0.073287964","9.768005","lay down","0"
"89514700822993","3","-0.28483582","0.055999756","9.704559","lay down","0"
"89514721056147","3","-0.21659851","0.24394226","9.753632","lay down","0"
"89514741289301","3","-0.26687622","0.10508728","9.671036","lay down","0"
"89514761552973","3","-0.23454285","-0.01701355","9.744064","lay down","0"
"89514781816645","3","-0.6319885","0.09310913","9.642303","lay down","0"
"89514802049799","3","-1.0007019","0.234375","9.599213","lay down","0"
"89514822313471","3","-0.8869629","0.27148438","9.511826","lay down","0"
"89514842546625","3","-0.62719727","0.14219666","9.467529","lay down","0"
"89514862779780","3","-0.63438416","-0.094833374","9.674622","lay down","0"
"89514883012934","3","-0.6595154","-0.16307068","9.631531","lay down","0"
"89514903258690","3","-0.2824402","0.1661377","9.692581","lay down","0"
"89514923522362","3","0.038391113","0.45463562","9.908066","lay down","0"
"89514943755516","3","-0.286026","0.38639832","9.5824585","lay down","0"
"89514963988671","3","-0.84747314","0.12184143","9.453171","lay down","0"
"89514984221825","3","-1.0186462","0.12782288","9.797928","lay down","0"
"89515004485497","3","-0.93006897","0.23556519","9.914047","lay down","0"
"89515024718651","3","-0.75050354","0.2750702","9.648285","lay down","0"
"89515044951806","3","-0.6080475","0.35168457","9.513016","lay down","0"
"89515065215477","3","-0.8139496","0.33013916","9.758423","lay down","0"
"89515085479149","3","-0.8642273","0.22239685","9.857788","lay down","0"
"89515105712304","3","-0.6212158","0.1769104","9.742859","lay down","0"
"89515125945458","3","-0.4117279","0.16853333","9.6662445","lay down","0"
"89515146178612","3","-0.28483582","0.0859375","9.605194","lay down","0"
"89515166411766","3","-0.4931183","0.16255188","9.819473","lay down","0"
"89515186675438","3","-0.5290375","0.0859375","9.711731","lay down","0"
"89515206908593","3","-0.33869934","-0.001449585","9.609985","lay down","0"
"89515227141747","3","-0.5721283","0.32774353","9.733292","lay down","0"
"89515247374901","3","-0.73973083","0.48934937","9.776382","lay down","0"
"89515267638573","3","-0.7097931","0.30859375","9.813492","lay down","0"
"89515287871727","3","-0.8283081","0.17211914","9.6866","lay down","0"
"89515308104882","3","-0.7780304","0.055999756","9.577667","lay down","0"
"89515328338036","3","-0.51467896","-0.01461792","9.98468","lay down","0"
"89515348601708","3","-0.4560089","0.106277466","9.90567","lay down","0"
"89515368865380","3","-0.5888977","0.19366455","9.524994","lay down","0"
"89515389098534","3","-0.8845825","0.25112915","9.447174","lay down","0"
"89515409331688","3","-0.9947052","0.26190186","9.739273","lay down","0"
"89515429595360","3","-0.85943604","0.27867126","9.700958","lay down","0"
"89515449828514","3","-0.9073181","0.22958374","9.502243","lay down","0"
"89515470061669","3","-0.90252686","0.18888855","9.486679","lay down","0"
"89515490325341","3","-0.8606415","0.14099121","9.635117","lay down","0"
"89515510558495","3","-0.75289917","0.13621521","9.823074","lay down","0"
"89515530791649","3","-0.622406","0.13980103","9.68779","lay down","0"
"89515551024804","3","-0.55656433","0.118255615","9.683014","lay down","0"
"89515571288475","3","-0.5290375","0.13142395","9.752441","lay down","0"
"89515591521630","3","-0.5888977","0.18888855","9.753632","lay down","0"
"89515611754784","3","-0.6331787","0.23556519","9.730896","lay down","0"
"89515631987938","3","-0.6104431","0.26190186","9.7285","lay down","0"
"89515652251610","3","-0.582901","0.2523346","9.739273","lay down","0"
"89515672515282","3","-0.5972748","0.23077393","9.7057495","lay down","0"
"89515692748436","3","-0.61763","0.21760559","9.696182","lay down","0"
"89515712981591","3","-0.61763","0.21881104","9.715332","lay down","0"
"89515733214745","3","-0.5888977","0.21760559","9.698563","lay down","0"
"89515753447899","3","-0.6032562","0.21043396","9.671036","lay down","0"
"89515773711571","3","-0.64515686","0.20803833","9.620758","lay down","0"
"89515793944725","3","-0.68226624","0.18289185","9.66864","lay down","0"
"89515814177880","3","-0.7181854","0.17092896","9.681808","lay down","0"
"89515834411034","3","-0.7121887","0.19126892","9.647095","lay down","0"
"89515854674706","3","-0.6882477","0.21881104","9.632736","lay down","0"
"89515874907860","3","-0.6990204","0.19726562","9.6866","lay down","0"
"89515895171532","3","-0.6894531","0.17451477","9.714127","lay down","0"
"89515915404686","3","-0.6786804","0.18049622","9.710541","lay down","0"
"89515935637841","3","-0.6547394","0.20085144","9.700958","lay down","0"
"89515955901513","3","-0.64634705","0.19366455","9.724899","lay down","0"
"89515976134667","3","-0.6499481","0.18528748","9.74646","lay down","0"
"89515996367821","3","-0.6499481","0.16374207","9.711731","lay down","0"
"89516016600975","3","-0.66430664","0.16255188","9.702164","lay down","0"
"89516036864647","3","-0.6679077","0.20683289","9.739273","lay down","0"
"89516057097802","3","-0.6487427","0.2236023","9.714127","lay down","0"
"89516077330956","3","-0.68466187","0.21401978","9.685394","lay down","0"
"89516097564110","3","-0.69303894","0.21881104","9.692581","lay down","0"
"89516117797264","3","-0.677475","0.20683289","9.699768","lay down","0"
"89516138060936","3","-0.6834564","0.21162415","9.685394","lay down","0"
"89516158294091","3","-0.6786804","0.20683289","9.655472","lay down","0"
"89516178527245","3","-0.6702881","0.19126892","9.683014","lay down","0"
"89516198790917","3","-0.65592957","0.19966125","9.68779","lay down","0"
"89516219054589","3","-0.65234375","0.18170166","9.675827","lay down","0"
"89516239287743","3","-0.6475525","0.16732788","9.698563","lay down","0"
"89516259520897","3","-0.64157104","0.1661377","9.696182","lay down","0"
"89516279784569","3","-0.65353394","0.17930603","9.702164","lay down","0"
"89516300017723","3","-0.64276123","0.18528748","9.697372","lay down","0"
"89516320250878","3","-0.63797","0.18888855","9.7057495","lay down","0"
"89516340484032","3","-0.63557434","0.19487","9.704559","lay down","0"
"89516360747704","3","-0.65234375","0.21043396","9.678223","lay down","0"
"89516380980858","3","-0.6690979","0.21401978","9.697372","lay down","0"
"89516401214013","3","-0.67388916","0.22839355","9.7057495","lay down","0"
"89516421447167","3","-0.67388916","0.21401978","9.688995","lay down","0"
"89516441710839","3","-0.67507935","0.19845581","9.683014","lay down","0"
"89516461943993","3","-0.6834564","0.19726562","9.677017","lay down","0"
"89516482177147","3","-0.6786804","0.20324707","9.700958","lay down","0"
"89516502440819","3","-0.677475","0.19606018","9.708145","lay down","0"
"89516522704491","3","-0.6547394","0.20205688","9.696182","lay down","0"
"89516542937645","3","-0.6667023","0.1769104","9.696182","lay down","0"
"89516563170800","3","-0.6499481","0.1876831","9.712936","lay down","0"
"89516583434472","3","-0.65353394","0.19007874","9.706955","lay down","0"
"89516603667626","3","-0.6439514","0.19966125","9.710541","lay down","0"
"89516623900780","3","-0.63797","0.19845581","9.700958","lay down","0"
"89516644133934","3","-0.6367798","0.19126892","9.702164","lay down","0"
"89516664397606","3","-0.65353394","0.20683289","9.681808","lay down","0"
"89516684630761","3","-0.6511383","0.21282959","9.690186","lay down","0"
"89516704863915","3","-0.66311646","0.19007874","9.694977","lay down","0"
"89516725127587","3","-0.66430664","0.20085144","9.694977","lay down","0"
"89516745360741","3","-0.65592957","0.20324707","9.690186","lay down","0"
"89516765593895","3","-0.6367798","0.20205688","9.696182","lay down","0"
"89516785857567","3","-0.6595154","0.20085144","9.706955","lay down","0"
"89516806090722","3","-0.6607208","0.19007874","9.698563","lay down","0"
"89516826354393","3","-0.6547394","0.19487","9.685394","lay down","0"
"89516846587548","3","-0.6595154","0.19126892","9.6866","lay down","0"
"89516866820702","3","-0.65592957","0.18888855","9.678223","lay down","0"
"89516887053856","3","-0.6595154","0.20085144","9.696182","lay down","0"
"89516907317528","3","-0.6690979","0.1769104","9.697372","lay down","0"
"89516927550682","3","-0.6655121","0.18528748","9.680618","sit up","0"
"89516947783837","3","-0.6667023","0.19366455","9.688995","sit up","0"
"89516968016991","3","-0.66311646","0.21043396","9.699768","sit up","0"
"89516988280663","3","-0.6595154","0.20922852","9.690186","sit up","0"
"89517008544335","3","-0.6547394","0.20922852","9.693787","sit up","0"
"89517028777489","3","-0.6439514","0.21760559","9.699768","sit up","0"
"89517049010643","3","-0.6690979","0.21162415","9.690186","sit up","0"
"89517069243798","3","-0.6511383","0.19487","9.700958","sit up","0"
"89517089507470","3","-0.6607208","0.19126892","9.681808","sit up","0"
"89517109740624","3","-0.6487427","0.19487","9.697372","sit up","0"
"89517129973778","3","-0.6439514","0.18289185","9.68779","sit up","0"
"89517150206932","3","-0.6607208","0.18170166","9.698563","sit up","0"
"89517170470604","3","-0.65711975","0.18888855","9.708145","sit up","0"
"89517190703759","3","-0.65592957","0.19966125","9.688995","sit up","0"
"89517210936913","3","-0.6595154","0.19966125","9.677017","sit up","0"
"89517231170067","3","-0.65711975","0.1876831","9.671036","sit up","0"
"89517251433739","3","-0.67149353","0.19726562","9.685394","sit up","0"
"89517271666893","3","-0.70262146","0.20443726","9.678223","sit up","0"
"89517291900048","3","-0.67507935","0.19487","9.648285","sit up","0"
"89517312133202","3","-0.6798706","0.24633789","9.680618","sit up","0"
"89517332366356","3","-0.6882477","0.20803833","9.709351","sit up","0"
"89517352630028","3","-0.65353394","0.16015625","9.752441","sit up","0"
"89517372893700","3","-0.60206604","0.17332458","9.709351","sit up","0"
"89517393126854","3","-0.6104431","0.20205688","9.669846","sit up","0"
"89517413360009","3","-0.6260071","0.19366455","9.648285","sit up","0"
"89517433623681","3","-0.65353394","0.18170166","9.659073","sit up","0"
"89517453856835","3","-0.6080475","0.13980103","9.734482","sit up","0"
"89517474089989","3","-0.6499481","0.15177917","9.758423","sit up","0"
"89517494323143","3","-0.68226624","0.25831604","9.720123","sit up","0"
"89517514586815","3","-0.661911","0.3038025","9.661453","sit up","0"
"89517534819970","3","-0.5924835","0.2164154","9.722519","sit up","0"
"89517555083641","3","-0.57333374","0.14698792","9.702164","sit up","0"
"89517575316796","3","-0.57572937","0.16374207","9.672226","sit up","0"
"89517595549950","3","-0.60446167","0.17811584","9.669846","sit up","0"
"89517615783104","3","-0.63438416","0.18170166","9.727295","sit up","0"
"89517636016259","3","-0.6367798","0.15655518","9.729691","sit up","0"
"89517656279931","3","-0.67149353","0.13142395","9.657867","sit up","0"
"89517676543602","3","-0.69184875","0.12902832","9.574066","sit up","0"
"89517696776757","3","-0.71698","0.20443726","9.694977","sit up","0"
"89517717009911","3","-0.81155396","0.33013916","9.681808","sit up","0"
"89517737243065","3","-1.0593567","0.41992188","9.49028","sit up","0"
"89517757506737","3","-1.2951813","0.47618103","9.435211","sit up","0"
"89517777739891","3","-1.1144257","0.4115448","9.583649","sit up","0"
"89517797973046","3","-0.49551392","0.12902832","9.714127","sit up","0"
"89517818206200","3","0.15211487","-0.005050659","9.873352","sit up","0"
"89517838469872","3","0.25746155","0.058395386","9.729691","sit up","0"
"89517858703026","3","-0.1375885","0.09550476","9.697372","sit up","0"
"89517878936181","3","-0.39735413","0.08114624","9.768005","sit up","0"
"89517899169335","3","-0.41410828","-0.090042114","9.823074","sit up","0"
"89517919433007","3","-0.2177887","-0.15467834","9.9978485","sit up","0"
"89517939696679","3","-0.14237976","-0.01461792","9.861374","sit up","0"
"89517959929833","3","-0.25489807","-0.075683594","9.830246","sit up","0"
"89517980193505","3","-0.2644806","-0.18940735","9.821869","sit up","0"
"89518000426659","3","-0.5888977","-0.07447815","9.60759","sit up","0"
"89518020659813","3","-1.05336","0.020095825","9.623154","sit up","0"
"89518040892968","3","-0.9121094","0.15415955","9.609985","sit up","0"
"89518061156639","3","-0.62480164","0.2631073","9.535767","sit up","0"
"89518081389794","3","-0.7277527","0.18409729","9.557312","sit up","0"
"89518101653466","3","-0.67388916","0.0045318604","9.721313","sit up","0"
"89518121886620","3","-0.47994995","0.04283142","9.773987","sit up","0"
"89518142119774","3","-0.5062866","0.08833313","9.636322","sit up","0"
"89518162383446","3","-0.54460144","0.065582275","9.710541","sit up","0"
"89518182616600","3","-0.61642456","0.17092896","9.688995","sit up","0"
"89518202849755","3","-0.42848206","0.22958374","9.80751","sit up","0"
"89518223113427","3","-0.098083496","0.16015625","9.791946","sit up","0"
"89518243346581","3","0.031204224","0.113464355","9.753632","sit up","0"
"89518263579735","3","-0.009490967","0.09550476","9.645905","sit up","0"
"89518283812889","3","-0.23693848","0.10269165","9.613571","sit up","0"
"89518304076561","3","-0.4225006","0.13980103","9.776382","sit up","0"
"89518324309716","3","-0.52664185","0.1769104","9.836243","sit up","0"
"89518344542870","3","-0.43806458","0.1194458","9.752441","sit up","0"
"89518364776024","3","-0.41410828","0.12184143","9.617172","sit up","0"
"89518385039696","3","-0.582901","0.16374207","9.613571","sit up","0"
"89518405272850","3","-0.6679077","0.22000122","9.732086","sit up","0"
"89518425506005","3","-0.5457916","0.23197937","9.808701","sit up","0"
"89518445769677","3","-0.5493927","0.24633789","9.673431","sit up","0"
"89518466002831","3","-0.6690979","0.23677063","9.5824585","sit up","0"
"89518486235985","3","-0.582901","0.19606018","9.6662445","sit up","0"
"89518506499657","3","-0.8055725","0.23677063","9.604004","sit up","0"
"89518526732811","3","-0.82951355","0.21760559","9.773987","sit up","0"
"89518546965966","3","-0.5613556","0.2056427","9.657867","sit up","0"
"89518567229638","3","-0.76846313","0.17332458","9.568085","sit up","0"
"89518587462792","3","-0.68585205","0.16494751","9.642303","sit up","0"
"89518607695946","3","-0.5793152","0.12902832","9.699768","sit up","0"
"89518627929100","3","-0.68226624","0.10029602","9.699768","sit up","0"
"89518648192772","3","-0.6260071","0.11227417","9.685394","sit up","0"
"89518668425927","3","-0.31236267","0.13500977","9.790741","sit up","0"
"89518688659081","3","-0.3841858","0.20922852","9.744064","sit up","0"
"89518708892235","3","-0.3937683","0.2858429","9.672226","sit up","0"
"89518729125389","3","-0.31236267","0.32894897","9.702164","sit up","0"
"89518749389061","3","-0.4416504","0.33013916","9.783569","sit up","0"
"89518769622216","3","-0.34947205","0.28344727","9.911652","sit up","0"
"89518789885888","3","-0.027450562","0.35766602","9.754837","sit up","0"
"89518810119042","3","-0.1950531","0.36724854","9.612381","sit up","0"
"89518830382714","3","-0.4739685","0.30500793","9.7608185","sit up","0"
"89518850615868","3","-0.48594666","0.29063416","9.76561","sit up","0"
"89518870849022","3","-0.44404602","0.2571106","9.697372","sit up","0"
"89518891082177","3","-0.41770935","0.3433075","9.685394","sit up","0"
"89518911315331","3","-0.43327332","0.3828125","9.605194","sit up","0"
"89518931579003","3","-0.70262146","0.3073883","9.552521","sit up","0"
"89518951812157","3","-0.81874084","0.21043396","9.734482","sit up","0"
"89518972045311","3","-0.55537415","0.17211914","9.837433","sit up","0"
"89518992278466","3","-0.37101746","0.19845581","9.644699","sit up","0"
"89519012511620","3","-0.5996704","0.22839355","9.474716","sit up","0"
"89519032775292","3","-0.81993103","0.28105164","9.715332","sit up","0"
"89519053008446","3","-0.84028625","0.33372498","9.802719","sit up","0"
"89519073272118","3","-0.6726837","0.28823853","9.698563","sit up","0"
"89519093505272","3","-0.63797","0.30021667","9.5429535","sit up","0"
"89519113768944","3","-0.7205658","0.2750702","9.548935","sit up","0"
"89519134002098","3","-0.7457123","0.1661377","9.642303","sit up","0"
"89519154235253","3","-0.93963623","0.21043396","9.716522","sit up","0"
"89519174468407","3","-0.72177124","0.5204773","9.90686","sit up","0"
"89519194701561","3","-0.5122833","0.24873352","9.483093","sit up","0"
"89519214934716","3","-0.6008606","-0.0062408447","9.592026","sit up","0"
"89519235198388","3","-0.5314331","0.111068726","9.680618","sit up","0"
"89519255431542","3","-0.71698","0.26669312","9.7608185","sit up","0"
"89519275695214","3","-0.83309937","0.26550293","9.898483","sit up","0"
"89519295928368","3","-0.6439514","0.16255188","9.617172","sit up","0"
"89519316161522","3","-0.5637512","0.03565979","9.535767","sit up","0"
"89519336394677","3","-0.69303894","0.12782288","9.8003235","sit up","0"
"89519356627831","3","-0.5182648","0.3241577","9.909256","sit up","0"
"89519376891503","3","-0.4344635","0.42112732","9.650681","sit up","0"
"89519397124657","3","-0.30158997","0.48457336","9.630341","sit up","0"
"89519417357811","3","-0.42010498","0.5168915","9.486679","sit up","0"
"89519437621483","3","-0.55537415","0.42829895","9.696182","sit up","0"
"89519457854638","3","-0.68466187","0.45584106","9.801514","sit up","0"
"89519478087792","3","-0.7121887","0.58631897","9.700958","sit up","0"
"89519498320946","3","-0.3734131","0.52645874","9.572876","sit up","0"
"89519518554100","3","-0.3937683","0.4414673","9.461548","sit up","0"
"89519538817772","3","-0.5865021","0.7694702","9.715332","sit up","0"
"89519559050927","3","-0.3039856","0.77186584","9.995453","sit up","0"
"89519579284081","3","-0.16152954","0.16972351","9.94397","sit up","0"
"89519599517235","3","-0.58529663","0.010513306","9.445984","sit up","0"
"89519619780907","3","-0.6954346","0.079940796","9.422043","sit up","0"
"89519640014061","3","-0.6667023","0.20803833","9.739273","sit up","0"
"89519660277733","3","-0.65711975","0.2846527","9.857788","sit up","0"
"89519680510888","3","-0.50868225","0.25473022","9.657867","sit up","0"
"89519700744042","3","-0.2537079","-0.063705444","9.624344","sit up","0"
"89519721007714","3","-0.07054138","-0.08406067","9.754837","sit up","0"
"89519741240868","3","-0.16751099","0.23556519","9.777573","sit up","0"
"89519761474022","3","-0.42848206","0.4115448","9.674622","sit up","0"
"89519781707177","3","-0.2824402","0.32176208","9.818283","sit up","0"
"89519801940331","3","-0.102874756","0.23556519","9.9583435","sit up","0"
"89519822204003","3","-0.29081726","0.27867126","9.66864","sit up","0"
"89519842437157","3","-0.15434265","0.23197937","9.785965","sit up","0"
"89519862670311","3","-0.16871643","0.30619812","9.82547","sit up","0"
"89519882903466","3","-0.29440308","0.27746582","9.74765","sit up","0"
"89519903167138","3","-0.2967987","0.32176208","9.669846","sit up","0"
"89519923400292","3","-0.32792664","0.3540802","9.611176","sit up","0"
"89519943663964","3","-0.46917725","0.29901123","9.757233","sit up","0"
"89519963897118","3","-0.5541687","0.30619812","9.654282","sit up","0"
"89519984130272","3","-0.5793152","0.34091187","9.524994","sit up","0"
"89520004393944","3","-0.5422058","0.32176208","9.648285","sit up","0"
"89520024627098","3","-0.4236908","0.313385","9.742859","sit up","0"
"89520044860253","3","-0.46200562","0.26908875","9.568085","sit up","0"
"89520065093407","3","-0.39855957","0.24993896","9.659073","sit up","0"
"89520085326561","3","-0.36982727","0.30859375","9.706955","sit up","0"
"89520105590233","3","-0.47636414","0.2966156","9.744064","sit up","0"
"89520125823388","3","-0.4021454","0.24873352","9.727295","sit up","0"
"89520146056542","3","-0.39616394","0.23077393","9.693787","sit up","0"
"89520166289696","3","-0.3829956","0.24633789","9.74646","sit up","0"
"89520186522850","3","-0.36982727","0.30978394","9.735687","sit up","0"
"89520206786522","3","-0.34228516","0.30021667","9.756027","sit up","0"
"89520227050194","3","-0.34828186","0.24394226","9.709351","sit up","0"
"89520247283348","3","-0.3829956","0.25352478","9.748856","sit up","0"
"89520267516503","3","-0.38897705","0.2750702","9.7452545","sit up","0"
"89520287749657","3","-0.37580872","0.29542542","9.704559","sit up","0"
"89520307982811","3","-0.365036","0.29421997","9.712936","sit up","0"
"89520328246483","3","-0.39974976","0.29421997","9.6866","sit up","0"
"89520348479638","3","-0.4272766","0.27986145","9.68779","sit up","0"
"89520368743309","3","-0.39735413","0.29782104","9.6866","sit up","0"
"89520388976464","3","-0.42848206","0.29421997","9.697372","sit up","0"
"89520409209618","3","-0.44284058","0.3073883","9.66745","sit up","0"
"89520429442772","3","-0.4308777","0.30500793","9.669846","sit up","0"
"89520449675927","3","-0.44044495","0.2858429","9.720123","sit up","0"
"89520469909081","3","-0.44044495","0.3026123","9.700958","sit up","0"
"89520490142235","3","-0.40812683","0.28823853","9.677017","sit up","0"
"89520510405907","3","-0.39974976","0.27148438","9.720123","sit up","0"
"89520530639061","3","-0.4057312","0.2750702","9.740463","sit up","0"
"89520550872216","3","-0.39256287","0.27027893","9.704559","sit up","0"
"89520571105370","3","-0.38059998","0.27986145","9.68779","sit up","0"
"89520591369042","3","-0.37580872","0.2918396","9.710541","sit up","0"
"89520611602196","3","-0.38658142","0.28823853","9.717728","sit up","0"
"89520631835350","3","-0.39855957","0.2966156","9.708145","sit up","0"
"89520652068505","3","-0.40693665","0.29063416","9.714127","sit up","0"
"89520672301659","3","-0.42010498","0.27986145","9.717728","sit up","0"
"89520692565331","3","-0.41410828","0.28704834","9.709351","sit up","0"
"89520712798485","3","-0.42489624","0.27627563","9.694977","sit up","0"
"89520733031639","3","-0.41410828","0.27027893","9.697372","sit up","0"
"89520753264794","3","-0.4165039","0.27746582","9.696182","sit up","0"
"89520773497948","3","-0.41770935","0.28105164","9.679413","sit up","0"
"89520793761620","3","-0.4165039","0.27867126","9.6866","sit up","0"
"89520814025292","3","-0.3949585","0.27267456","9.708145","sit up","0"
"89520834258446","3","-0.4117279","0.27267456","9.703354","sit up","0"
"89520854491600","3","-0.3937683","0.27027893","9.697372","sit up","0"
"89520874724755","3","-0.40812683","0.27867126","9.700958","sit up","0"
"89520894957909","3","-0.39137268","0.2846527","9.702164","sit up","0"
"89520915221581","3","-0.38539124","0.28704834","9.711731","stand up","0"
"89520935454735","3","-0.3949585","0.27627563","9.717728","stand up","0"
"89520955687889","3","-0.41889954","0.2918396","9.723709","stand up","0"
"89520975921044","3","-0.40933228","0.28225708","9.706955","stand up","0"
"89520996154198","3","-0.40812683","0.2642975","9.693787","stand up","0"
"89521016417870","3","-0.39016724","0.27867126","9.698563","stand up","0"
"89521036651024","3","-0.40933228","0.28225708","9.699768","stand up","0"
"89521056884179","3","-0.41052246","0.27148438","9.714127","stand up","0"
"89521077147850","3","-0.4117279","0.29063416","9.709351","stand up","0"
"89521097381005","3","-0.41770935","0.27148438","9.702164","stand up","0"
"89521117614159","3","-0.4225006","0.2642975","9.727295","stand up","0"
"89521137877831","3","-0.4165039","0.27986145","9.693787","stand up","0"
"89521158110985","3","-0.41052246","0.27986145","9.698563","stand up","0"
"89521178344139","3","-0.40333557","0.26908875","9.717728","stand up","0"
"89521198577294","3","-0.41410828","0.27986145","9.698563","stand up","0"
"89521218810448","3","-0.40933228","0.27027893","9.698563","stand up","0"
"89521239074120","3","-0.4057312","0.26908875","9.669846","stand up","0"
"89521259307274","3","-0.41531372","0.27746582","9.671036","stand up","0"
"89521279540429","3","-0.42010498","0.28944397","9.679413","stand up","0"
"89521299773583","3","-0.38539124","0.27986145","9.694977","stand up","0"
"89521320006737","3","-0.38179016","0.2930298","9.715332","stand up","0"
"89521340270409","3","-0.43206787","0.3026123","9.671036","stand up","0"
"89521360534081","3","-0.45361328","0.2559204","9.675827","stand up","0"
"89521380767235","3","-0.41052246","0.24275208","9.697372","stand up","0"
"89521401030907","3","-0.37580872","0.25112915","9.698563","stand up","0"
"89521421264061","3","-0.43206787","0.29782104","9.688995","stand up","0"
"89521441497216","3","-0.35186768","0.29782104","9.678223","stand up","0"
"89521461730370","3","-0.34109497","0.24754333","9.740463","stand up","0"
"89521481994042","3","-0.3075714","0.23916626","9.734482","stand up","0"
"89521502227196","3","-0.24533081","0.27867126","9.712936","stand up","0"
"89521522460350","3","-0.23335266","0.31217957","9.772797","stand up","0"
"89521542693505","3","-0.16392517","0.28823853","9.715332","stand up","0"
"89521562926659","3","-0.5685425","0.2678833","9.789551","stand up","0"
"89521583159813","3","-0.11364746","0.24035645","9.763214","stand up","0"
"89521603392968","3","-0.3219452","0.25112915","9.729691","stand up","0"
"89521623626122","3","-0.33151245","0.22239685","9.967911","stand up","0"
"89521643859276","3","-0.09448242","0.3145752","9.552521","stand up","0"
"89521664122948","3","-0.076538086","0.18528748","9.752441","stand up","0"
"89521684386620","3","-0.0513916","0.2559204","9.92363","stand up","0"
"89521704619774","3","-0.13877869","0.3468933","9.641113","stand up","0"
"89521724852929","3","-0.6212158","0.3038025","9.49147","stand up","0"
"89521745086083","3","-1.1395569","0.30978394","9.92482","stand up","0"
"89521765319237","3","-0.6690979","0.31217957","10.160645","stand up","0"
"89521785582909","3","0.10423279","0.37443542","9.425629","stand up","0"
"89521805816063","3","0.22633362","0.37322998","9.419647","stand up","0"
"89521826049218","3","-0.36862183","0.33013916","9.916443","stand up","0"
"89521846282372","3","-0.87260437","0.2631073","9.893692","stand up","0"
"89521866515526","3","-0.7696533","0.23077393","9.645905","stand up","0"
"89521886748681","3","-0.7780304","0.30140686","9.460342","stand up","0"
"89521907012352","3","-1.0617523","0.3756256","9.618362","stand up","0"
"89521927245507","3","-1.1838531","0.3816223","9.756027","stand up","0"
"89521947509179","3","-1.2784271","0.21760559","9.623154","stand up","0"
"89521967742333","3","-1.108429","0.19126892","9.742859","stand up","0"
"89521987975487","3","-1.1395569","0.23077393","9.775177","stand up","0"
"89522008208641","3","-1.0018921","0.30021667","9.635117","stand up","0"
"89522028441796","3","-0.85105896","0.2750702","9.278381","stand up","0"
"89522048705468","3","-1.0186462","0.25831604","9.058121","stand up","0"
"89522068938622","3","-1.2437134","0.3313446","9.544144","stand up","0"
"89522089171776","3","-1.2688446","0.32295227","10.169037","stand up","0"
"89522109404931","3","-1.156311","0.33732605","10.042145","stand up","0"
"89522129638085","3","-1.0222473","0.2642975","9.456757","stand up","0"
"89522149871239","3","-1.0342102","0.27986145","9.262833","stand up","0"
"89522170134911","3","-1.0832977","0.33732605","9.633926","stand up","0"
"89522190368065","3","-1.0401917","0.3361206","10.008621","stand up","0"
"89522210601220","3","-1.0473785","0.27388","9.870956","stand up","0"
"89522230864891","3","-1.0222473","0.2858429","9.444778","stand up","0"
"89522251098046","3","-1.03302","0.3073883","9.515411","stand up","0"
"89522271361718","3","-1.0282288","0.33372498","9.729691","stand up","0"
"89522291594872","3","-1.064148","0.30859375","9.86496","stand up","0"
"89522311828026","3","-1.0581512","0.27746582","9.684204","stand up","0"
"89522332061181","3","-1.03302","0.27867126","9.52858","stand up","0"
"89522352294335","3","-1.0413971","0.30978394","9.66745","stand up","0"
"89522372527489","3","-1.0713196","0.31697083","9.74646","stand up","0"
"89522392760643","3","-1.0593567","0.32655334","9.732086","stand up","0"
"89522413024315","3","-1.0461884","0.2858429","9.665054","stand up","0"
"89522433257470","3","-1.0401917","0.27986145","9.625549","stand up","0"
"89522453490624","3","-1.05336","0.30619812","9.660263","stand up","0"
"89522473723778","3","-1.0509796","0.31098938","9.683014","stand up","0"
"89522493956932","3","-1.0366058","0.2966156","9.768005","stand up","0"
"89522514220604","3","-1.0449829","0.28225708","9.636322","stand up","0"
"89522534453759","3","-1.0521698","0.30619812","9.568085","stand up","0"
"89522554717431","3","-1.0497742","0.33493042","9.659073","stand up","0"
"89522574981102","3","-1.0461884","0.31098938","9.678223","stand up","0"
"89522595214257","3","-1.0521698","0.29421997","9.7057495","stand up","0"
"89522615447411","3","-1.05336","0.29782104","9.66864","stand up","0"
"89522635680565","3","-1.0737152","0.31578064","9.683014","stand up","0"
"89522655913720","3","-1.0354156","0.3145752","9.638718","stand up","0"
"89522676146874","3","-1.03302","0.31217957","9.677017","stand up","0"
"89522696380028","3","-1.0653381","0.30500793","9.702164","stand up","0"
"89522716613182","3","-1.0497742","0.29421997","9.671036","stand up","0"
"89522736846337","3","-1.0413971","0.3145752","9.642303","stand up","0"
"89522757079491","3","-1.0390015","0.29901123","9.60759","stand up","0"
"89522777312645","3","-1.0461884","0.313385","9.6866","stand up","0"
"89522797576317","3","-1.0545654","0.32176208","9.715332","stand up","0"
"89522817839989","3","-1.0581512","0.2966156","9.674622","stand up","0"
"89522838073143","3","-1.024643","0.32774353","9.552521","stand up","0"
"89522858306298","3","-1.0449829","0.33972168","9.757233","stand up","0"
"89522878539452","3","-1.0796967","0.2858429","9.932007","stand up","0"
"89522898772606","3","-0.9923096","0.28823853","9.394501","stand up","0"
"89522919005761","3","-1.0354156","0.31217957","9.656677","stand up","0"
"89522939269432","3","-1.0677338","0.31578064","9.757233","stand up","0"
"89522959533104","3","-1.0761108","0.28704834","9.721313","stand up","0"
"89522979766259","3","-1.0066833","0.3241577","9.645905","stand up","0"
"89522999999413","3","-1.0796967","0.29782104","9.647095","stand up","0"
"89523020232567","3","-1.0497742","0.3073883","9.647095","stand up","0"
"89523040465722","3","-1.0509796","0.3313446","9.723709","stand up","0"
"89523060698876","3","-1.05336","0.2966156","9.714127","stand up","0"
"89523080962548","3","-1.0401917","0.2966156","9.639908","stand up","0"
"89523101195702","3","-1.048584","0.31098938","9.672226","stand up","0"
"89523121428856","3","-1.0473785","0.3073883","9.673431","stand up","0"
"89523141662011","3","-1.0509796","0.3073883","9.680618","stand up","0"
"89523161895165","3","-1.0665283","0.31936646","9.699768","stand up","0"
"89523182158837","3","-1.0366058","0.30021667","9.624344","stand up","0"
"89523202391991","3","-1.0545654","0.32295227","9.627945","stand up","0"
"89523222625145","3","-1.0773163","0.30978394","9.751236","stand up","0"
"89523242858300","3","-1.029419","0.31817627","9.6064","stand up","0"
"89523263091454","3","-1.009079","0.3313446","9.661453","stand up","0"
"89523283324608","3","-1.0940704","0.313385","9.894897","stand up","0"
"89523303588280","3","-1.0665283","0.27867126","9.505844","stand up","0"
"89523323821434","3","-1.0042877","0.29542542","9.497452","stand up","0"
"89523344054589","3","-1.0653381","0.31578064","9.732086","stand up","0"
"89523364318261","3","-1.0773163","0.30140686","9.848206","stand up","0"
"89523384551415","3","-1.0545654","0.28823853","9.66745","stand up","0"
"89523404815087","3","-1.0222473","0.2930298","9.521393","stand up","0"
"89523425048241","3","-1.0545654","0.313385","9.636322","stand up","0"
"89523445281395","3","-1.0964661","0.3253479","9.831451","stand up","0"
"89523465514550","3","-1.0617523","0.30978394","9.693787","stand up","0"
"89523485747704","3","-1.0186462","0.29063416","9.576462","stand up","0"
"89523505980858","3","-1.0629425","0.31098938","9.625549","stand up","0"
"89523526214013","3","-1.0856934","0.31817627","9.700958","stand up","0"
"89523546447167","3","-1.0629425","0.31936646","9.691391","stand up","0"
"89523566710839","3","-1.0509796","0.2918396","9.6866","stand up","0"
"89523586943993","3","-1.0677338","0.28225708","9.7057495","stand up","0"
"89523607207665","3","-1.0390015","0.34570312","9.636322","stand up","0"
"89523627440819","3","-1.064148","0.3421173","9.74765","stand up","0"
"89523647673973","3","-1.068924","0.28823853","9.750046","stand up","0"
"89523667937645","3","-1.0258331","0.30140686","9.436401","stand up","0"
"89523688201317","3","-1.0425873","0.31578064","9.7668","stand up","0"
"89523708434472","3","-1.0761108","0.33372498","9.730896","stand up","0"
"89523728667626","3","-1.0545654","0.30978394","9.6267395","stand up","0"
"89523748900780","3","-1.0270386","0.30140686","9.679413","stand up","0"
"89523769133934","3","-1.0713196","0.29901123","9.625549","stand up","0"
"89523789367089","3","-1.0390015","0.33013916","9.681808","stand up","0"
"89523809600243","3","-1.0497742","0.33851624","9.7285","stand up","0"
"89523829833397","3","-1.0401917","0.29782104","9.637512","stand up","0"
"89523850066552","3","-1.0366058","0.29063416","9.674622","stand up","0"
"89523870299706","3","-1.0761108","0.3026123","9.721313","stand up","0"
"89523890532860","3","-1.0258331","0.31578064","9.605194","stand up","0"
"89523910766014","3","-1.0390015","0.32774353","9.679413","stand up","0"
"89523931029686","3","-1.0653381","0.29901123","9.697372","stand up","0"
"89523951293358","3","-1.056961","0.31098938","9.655472","stand up","0"
"89523971526513","3","-1.0473785","0.31697083","9.657867","stand up","0"
"89523991759667","3","-1.0461884","0.31098938","9.677017","stand up","0"
"89524011992821","3","-1.056961","0.32774353","9.6662445","stand up","0"
"89524032256493","3","-1.0629425","0.3145752","9.672226","stand up","0"
"89524052489647","3","-1.0509796","0.3073883","9.693787","stand up","0"
"89524072722802","3","-1.064148","0.32055664","9.656677","stand up","0"
"89524092955956","3","-1.056961","0.30140686","9.673431","stand up","0"
"89524113189110","3","-1.056961","0.30021667","9.654282","stand up","0"
"89524133452782","3","-1.0557556","0.3026123","9.681808","stand up","0"
"89524153685936","3","-1.0509796","0.32055664","9.693787","stand up","0"
"89524173919091","3","-1.0425873","0.32774353","9.66745","stand up","0"
"89524194152245","3","-1.0425873","0.31697083","9.653076","stand up","0"
"89524214385399","3","-1.0581512","0.3026123","9.673431","stand up","0"
"89524234649071","3","-1.0497742","0.3145752","9.692581","stand up","0"
"89524254882225","3","-1.0545654","0.32894897","9.665054","stand up","0"
"89524275145897","3","-1.0521698","0.32295227","9.669846","stand up","0"
"89524295379052","3","-1.0617523","0.31217957","9.657867","stand up","0"
"89524315612206","3","-1.0593567","0.3073883","9.655472","stand up","0"
"89524335845360","3","-1.048584","0.31217957","9.694977","stand up","0"
"89524356078514","3","-1.0557556","0.32295227","9.679413","stand up","0"
"89524376311669","3","-1.0617523","0.33493042","9.635117","stand up","0"
"89524396544823","3","-1.0545654","0.3038025","9.660263","stand up","0"
"89524416777977","3","-1.0425873","0.3145752","9.683014","stand up","0"
"89524437011132","3","-1.064148","0.31217957","9.6866","stand up","0"
"89524457274804","3","-1.048584","0.31697083","9.665054","stand up","0"
"89524477507958","3","-1.0366058","0.313385","9.660263","stand up","0"
"89524497741112","3","-1.0497742","0.31098938","9.691391","stand up","0"
"89524518004784","3","-1.0665283","0.3038025","9.674622","stand up","0"
"89524538237938","3","-1.0629425","0.31817627","9.650681","stand up","0"
"89524558471093","3","-1.05336","0.3253479","9.673431","stand up","0"
"89524578704247","3","-1.0629425","0.31578064","9.68779","stand up","0"
"89524598937401","3","-1.064148","0.3026123","9.711731","stand up","0"
"89524619201073","3","-1.0437927","0.3073883","9.651886","stand up","0"
"89524639434227","3","-1.0401917","0.3073883","9.64949","stand up","0"
"89524659667382","3","-1.0617523","0.31578064","9.671036","stand up","0"
"89524679900536","3","-1.0521698","0.3073883","9.663849","stand up","0"
"89524700164208","3","-1.048584","0.31098938","9.677017","stand up","0"
"89524720397362","3","-1.0749207","0.32894897","9.751236","stand up","0"
"89524740630516","3","-1.0773163","0.3026123","9.753632","stand up","0"
"89524760863671","3","-1.0617523","0.30859375","9.617172","stand up","0"
"89524781127343","3","-1.0258331","0.31578064","9.563293","stand up","0"
"89524801360497","3","-1.0749207","0.30500793","9.736877","stand up","0"
"89524821593651","3","-1.0749207","0.3145752","9.711731","stand up","0"
"89524841826806","3","-1.048584","0.30619812","9.657867","stand up","0"
"89524862090477","3","-1.0342102","0.3073883","9.64949","stand up","0"
"89524882323632","3","-1.0593567","0.31697083","9.643509","stand up","0"
"89524902545885","3","-1.0425873","0.31217957","9.6866","stand up","0"
"89524943012194","3","-1.0677338","0.31578064","9.629135","none","1"
"89524963245348","3","-1.05336","0.313385","9.679413","none","1"
"89524983478502","3","-1.0617523","0.31217957","9.68779","none","1"
"89525003711656","3","-1.056961","0.30859375","9.633926","none","1"
"89525023944811","3","-1.0473785","0.3073883","9.6662445","none","1"
"89525044177965","3","-1.0449829","0.31217957","9.702164","none","1"
"89525064411119","3","-1.0425873","0.3325348","9.685394","none","1"
"89525084674791","3","-1.0868835","0.313385","9.793137","none","1"
"89525104907946","3","-1.0593567","0.27867126","9.551331","none","1"
"89525125141100","3","-1.0186462","0.29901123","9.460342","none","1"
"89525145404772","3","-1.0629425","0.3433075","9.940384","none","1"
"89525165637926","3","-1.0820923","0.31697083","9.739273","none","1"
"89525185871080","3","-1.024643","0.29901123","9.545334","none","1"
"89525206104235","3","-1.03302","0.32176208","9.619568","none","1"
"89525226337389","3","-1.092865","0.2930298","9.720123","none","1"
"89525246570543","3","-1.0545654","0.35168457","9.751236","none","1"
"89525266803697","3","-1.0497742","0.31697083","9.659073","none","1"
"89525287067369","3","-1.05336","0.30500793","9.58844","none","1"
"89525307300524","3","-1.056961","0.31578064","9.712936","none","1"
"89525327533678","3","-1.088089","0.31817627","9.7057495","none","1"
"89525347766832","3","-1.0366058","0.3325348","9.651886","none","1"
"89525368030504","3","-1.0677338","0.30500793","9.669846","none","1"
"89525388263658","3","-1.056961","0.2858429","9.654282","none","1"
"89525408496813","3","-1.0437927","0.32894897","9.678223","none","1"
"89525428729967","3","-1.0868835","0.32655334","9.68779","none","1"
"89525448993639","3","-1.0605469","0.30859375","9.680618","none","1"
"89525469226793","3","-1.0425873","0.3253479","9.647095","none","1"
"89525489459947","3","-1.0701294","0.3073883","9.659073","none","1"
"89525509693102","3","-1.0617523","0.31817627","9.693787","none","1"
"89525529926256","3","-1.0593567","0.31817627","9.656677","none","1"
"89525550159410","3","-1.0378113","0.30140686","9.656677","none","1"
"89525570392565","3","-1.0629425","0.313385","9.650681","none","1"
"89525590656237","3","-1.0737152","0.3026123","9.697372","none","1"
"89525610889391","3","-1.0521698","0.32655334","9.671036","none","1"
"89525631122545","3","-1.0390015","0.31217957","9.625549","none","1"
"89525651386217","3","-1.0617523","0.31098938","9.696182","none","1"
"89525671619371","3","-1.0665283","0.313385","9.662659","none","1"
"89525691883043","3","-1.0605469","0.3253479","9.679413","none","1"
"89525712116197","3","-1.0593567","0.3026123","9.657867","none","1"
"89525732349352","3","-1.056961","0.31697083","9.647095","none","1"
"89525752582506","3","-1.0605469","0.3145752","9.685394","none","1"
"89525772846178","3","-1.0605469","0.31817627","9.68779","none","1"
"89525793079332","3","-1.0509796","0.32055664","9.671036","none","1"
"89525813343004","3","-1.0617523","0.33013916","9.64949","none","1"
"89525833576158","3","-1.048584","0.32655334","9.6866","none","1"
"89525853809313","3","-1.0342102","0.3325348","9.702164","none","1"
"89525874042467","3","-1.05336","0.33851624","9.6662445","none","1"
"89525894306139","3","-1.0629425","0.32655334","9.66745","none","1"
"89525914539293","3","-1.0473785","0.33372498","9.650681","none","1"
"89525934772447","3","-1.0629425","0.32774353","9.698563","none","1"
"89525955005602","3","-1.0581512","0.3241577","9.692581","none","1"
"89525975269274","3","-1.0497742","0.3253479","9.642303","none","1"
"89525995502428","3","-1.048584","0.3313446","9.66864","none","1"
"89526015735582","3","-1.0581512","0.32774353","9.672226","none","1"
"89526035968737","3","-1.0449829","0.32894897","9.688995","none","1"
"89526056201891","3","-1.0473785","0.3325348","9.659073","none","1"
"89526076465563","3","-1.0545654","0.3241577","9.674622","none","1"
"89526096698717","3","-1.0425873","0.32774353","9.675827","none","1"
"89526116931871","3","-1.0461884","0.3361206","9.690186","none","1"
"89526137165026","3","-1.0521698","0.3325348","9.6662445","none","1"
"89526157428697","3","-1.064148","0.3253479","9.673431","none","1"
"89526177661852","3","-1.0509796","0.34091187","9.671036","none","1"
"89526197895006","3","-1.0473785","0.33851624","9.6866","none","1"
"89526218128160","3","-1.05336","0.33013916","9.690186","none","1"
"89526238391832","3","-1.0665283","0.32055664","9.673431","none","1"
"89526258655504","3","-1.0629425","0.3313446","9.675827","none","1"
"89526278888658","3","-1.0390015","0.32176208","9.6662445","none","1"
"89526299121813","3","-1.0449829","0.32894897","9.660263","none","1"
"89526319354967","3","-1.0557556","0.33732605","9.662659","none","1"
"89526339588121","3","-1.0509796","0.32295227","9.64949","none","1"
"89526359851793","3","-1.0461884","0.3253479","9.66864","none","1"
"89526380084947","3","-1.0509796","0.32176208","9.684204","none","1"
"89526400318102","3","-1.0425873","0.32176208","9.660263","none","1"
"89526420551256","3","-1.0605469","0.34570312","9.66864","none","1"
"89526440814928","3","-1.0509796","0.31578064","9.68779","none","1"
"89526461048082","3","-1.048584","0.32055664","9.66745","none","1"
"89526481281237","3","-1.064148","0.3313446","9.647095","none","1"
"89526501514391","3","-1.0665283","0.32055664","9.677017","none","1"
"89526521778063","3","-1.0521698","0.32894897","9.672226","none","1"
"89526542041735","3","-1.048584","0.32774353","9.665054","none","1"
"89526562305406","3","-1.0653381","0.33493042","9.672226","none","1"
"89526582538561","3","-1.048584","0.3433075","9.679413","none","1"
"89526602771715","3","-1.0449829","0.33493042","9.659073","none","1"
"89526623004869","3","-1.0593567","0.3241577","9.647095","none","1"
"89526643238024","3","-1.0425873","0.31936646","9.678223","none","1"
"89526663471178","3","-1.0425873","0.32655334","9.697372","none","1"
"89526683704332","3","-1.056961","0.31817627","9.673431","none","1"
"89526703937487","3","-1.0473785","0.3253479","9.64949","none","1"
"89526724170641","3","-1.05336","0.3073883","9.684204","none","1"
"89526744403795","3","-1.0545654","0.3253479","9.685394","none","1"
"89526764667467","3","-1.0449829","0.32894897","9.648285","none","1"
"89526784900621","3","-1.0629425","0.31817627","9.645905","none","1"
"89526805164293","3","-1.0557556","0.32176208","9.680618","none","1"
"89526825397447","3","-1.0521698","0.3253479","9.674622","none","1"
"89526845630602","3","-1.0509796","0.3325348","9.650681","none","1"
"89526865894274","3","-1.0593567","0.313385","9.6662445","none","1"
"89526886127428","3","-1.0557556","0.31697083","9.66864","none","1"
"89526906391100","3","-1.0497742","0.33732605","9.685394","none","1"
"89526926624254","3","-1.0437927","0.3361206","9.659073","none","1"
"89526946857408","3","-1.0593567","0.31817627","9.680618","none","1"
"89526967090563","3","-1.05336","0.32295227","9.672226","none","1"
"89526987323717","3","-1.0617523","0.31817627","9.673431","none","1"
"89527007556871","3","-1.0449829","0.32176208","9.669846","none","1"
"89527027790026","3","-1.0497742","0.31697083","9.625549","none","1"
"89527048023180","3","-0.65234375","-0.14271545","9.120377","none","1"
"89527068256334","3","-1.6243896","1.0998688","10.2229","none","1"
"89527088520006","3","-1.1192017","0.4618225","10.06488","none","1"
"89527108783678","3","-1.3706055","0.36964417","9.688995","none","1"
"89655675749981","3","-1.2377167","0.313385","9.381332","none","1"
"89655695738995","3","-1.2137756","-0.315094","9.718918","none","1"
"89655715728009","3","-0.85943604","0.37322998","9.777573","none","1"
"89655735717022","3","-0.78282166","0.40795898","9.674622","none","1"
"89655755706036","3","-1.0665283","0.10508728","9.948761","none","1"
"89655775695050","3","-0.8283081","0.3361206","9.5082245","none","1"
"89655795653546","3","-0.9121094","0.20683289","9.574066","none","1"
"89655815642559","3","-0.9156952","0.26071167","9.641113","none","1"
"89655835601056","3","-0.92048645","0.2559204","9.891296","none","1"
"89655855620587","3","-0.89056396","0.2571106","9.596817","none","1"
"89655875609600","3","-0.89056396","0.2559204","9.60878","none","1"
"89655895598614","3","-0.9121094","0.2523346","9.681808","none","1"
"89655915587628","3","-0.9228821","0.25950623","9.711731","none","1"
"89655935576642","3","-0.92048645","0.2571106","9.706955","none","1"
"89655955535138","3","-0.9073181","0.24754333","9.631531","none","1"
"89655975524151","3","-0.90133667","0.24156189","9.665054","none","1"
"89655995513165","3","-0.91329956","0.25352478","9.6866","none","1"
"89656015502179","3","-0.92048645","0.2571106","9.694977","none","1"
"89656035460675","3","-0.90252686","0.25473022","9.66864","none","1"
"89656055449688","3","-0.9156952","0.24993896","9.642303","none","1"
"89656075408184","3","-0.9121094","0.25831604","9.64949","none","1"
"89656095397198","3","-0.9228821","0.2559204","9.715332","none","1"
"89656115386212","3","-0.8941498","0.24993896","9.674622","none","1"
"89656135375225","3","-0.8953552","0.24633789","9.644699","none","1"
"89656155364239","3","-0.9061279","0.25112915","9.659073","none","1"
"89656175353253","3","-0.9252777","0.2559204","9.696182","none","1"
"89656195311749","3","-0.90252686","0.234375","9.663849","none","1"
"89656215300763","3","-0.9073181","0.23197937","9.679413","none","1"
"89656235259259","3","-0.91690063","0.25352478","9.671036","none","1"
"89656255248272","3","-0.91690063","0.23556519","9.665054","none","1"
"89656275237286","3","-0.9001312","0.23796082","9.681808","none","1"
"89656295226300","3","-0.91329956","0.24633789","9.678223","none","1"
"89656315184796","3","-0.9073181","0.2451477","9.660263","none","1"
"89656335173809","3","-0.9109192","0.2523346","9.684204","none","1"
"89656355132306","3","-0.9109192","0.2571106","9.681808","none","1"
"89656375121319","3","-0.9252777","0.24394226","9.684204","none","1"
"89656395110333","3","-0.9121094","0.23916626","9.656677","none","1"
"89656415099347","3","-0.90252686","0.23796082","9.66745","none","1"
"89656435057843","3","-0.9156952","0.2523346","9.700958","none","1"
"89656455046856","3","-0.9156952","0.23796082","9.680618","none","1"
"89656475035870","3","-0.9109192","0.24633789","9.650681","none","1"
"89656494994366","3","-0.9180908","0.24754333","9.677017","none","1"
"89656514983380","3","-0.9264679","0.23197937","9.671036","none","1"
"89656534972393","3","-0.91690063","0.2523346","9.684204","none","1"
"89656554961407","3","-0.9216919","0.24754333","9.677017","none","1"
"89656574950421","3","-0.914505","0.25112915","9.685394","none","1"
"89656594908917","3","-0.9180908","0.2559204","9.6866","none","1"
"89656614897931","3","-0.9037323","0.24633789","9.642303","none","1"
"89656634856427","3","-0.9037323","0.24993896","9.665054","none","1"
"89656654845440","3","-0.9156952","0.24633789","9.698563","none","1"
"89656674834454","3","-0.9240875","0.2451477","9.715332","none","1"
"89656694823468","3","-0.8941498","0.22718811","9.651886","none","1"
"89656714812481","3","-0.91929626","0.24873352","9.657867","none","1"
"89656734801495","3","-0.9252777","0.2523346","9.673431","none","1"
"89656754759991","3","-0.9216919","0.24035645","9.7057495","none","1"
"89656774749005","3","-0.90852356","0.23916626","9.6662445","none","1"
"89656794738018","3","-0.9001312","0.23916626","9.64949","none","1"
"89656814696515","3","-0.90971375","0.24993896","9.674622","none","1"
"89656834685528","3","-0.914505","0.2559204","9.7285","none","1"
"89656854674542","3","-0.91690063","0.24275208","9.669846","none","1"
"89656874633038","3","-0.90252686","0.2451477","9.618362","none","1"
"89656894622052","3","-0.91690063","0.24035645","9.700958","none","1"
"89656914580548","3","-0.9121094","0.23916626","9.673431","none","1"
"89656934569561","3","-0.91929626","0.24754333","9.675827","none","1"
"89656954558575","3","-0.9049225","0.24993896","9.654282","none","1"
"89656974547589","3","-0.90971375","0.24156189","9.656677","none","1"
"89656994536602","3","-0.9240875","0.24633789","9.665054","none","1"
"89657014495099","3","-0.9240875","0.24633789","9.647095","none","1"
"89657034484112","3","-0.90852356","0.24873352","9.661453","none","1"
"89657054473126","3","-0.914505","0.26071167","9.709351","none","1"
"89657074462140","3","-0.9240875","0.25473022","9.7452545","none","1"
"89657094451153","3","-0.9252777","0.2523346","9.7057495","none","1"
"89657114409649","3","-0.914505","0.24754333","9.564499","none","1"
"89657134398663","3","-0.875","0.234375","9.621948","none","1"
"89657154387677","3","-0.9228821","0.2523346","9.7608185","none","1"
"89657174376690","3","-0.9336548","0.22239685","9.710541","none","1"
"89657194335186","3","-0.88816833","0.234375","9.625549","none","1"
"89657214324200","3","-0.90252686","0.25352478","9.648285","none","1"
"89657234282696","3","-0.9324646","0.24275208","9.706955","none","1"
"89657254271710","3","-0.9156952","0.24873352","9.673431","none","1"
"89657274260724","3","-0.90133667","0.2451477","9.638718","none","1"
"89657294249737","3","-0.9037323","0.24035645","9.647095","none","1"
"89657314238751","3","-0.9180908","0.22958374","9.704559","none","1"
"89657334227765","3","-0.9240875","0.23197937","9.672226","none","1"
"89657354186261","3","-0.9109192","0.2056427","9.51062","none","1"
"89657374175274","3","-0.88816833","0.24275208","9.617172","none","1"
"89657394133770","3","-0.9061279","0.3145752","9.975098","none","1"
"89657414122784","3","-1.017456","0.2678833","10.078049","none","1"
"89657434111798","3","-0.8642273","0.19966125","9.026993","none","1"
"89657454100811","3","-0.80436707","0.24633789","9.479507","none","1"
"89657474059308","3","-1.0473785","0.27867126","10.292328","none","1"
"89657494048321","3","-0.97914124","0.22839355","9.694977","none","1"
"89657514006817","3","-0.8259125","0.26071167","9.43042","none","1"
"89657533965313","3","-0.8821869","0.23677063","9.545334","none","1"
"89657553923809","3","-0.97795105","0.23077393","9.773987","none","1"
"89657573943341","3","-0.93125916","0.2858429","9.862579","none","1"
"89657593962872","3","-0.89056396","0.23077393","9.518997","none","1"
"89657613951886","3","-0.8738098","0.23916626","9.451965","none","1"
"89657633910382","3","-0.95640564","0.24156189","9.7608185","none","1"
"89657653899395","3","-0.9288635","0.22479248","9.911652","none","1"
"89657673888409","3","-0.91690063","0.24156189","9.881729","none","1"
"89657693877423","3","-0.95880127","0.234375","9.380142","none","1"
"89657713835919","3","-0.8319092","0.22120667","9.334656","none","1"
"89657733824933","3","-0.9252777","0.28344727","9.9188385","none","1"
"89657753783429","3","-1.009079","0.22120667","9.870956","none","1"
"89657773772442","3","-0.875","0.234375","9.5824585","none","1"
"89657793730938","3","-0.8606415","0.26190186","9.486679","none","1"
"89657813719952","3","-0.93125916","0.22718811","9.662659","none","1"
"89657833708966","3","-0.9288635","0.27388","9.868561","none","1"
"89657853697979","3","-0.93844604","0.25112915","9.716522","none","1"
"89657873686993","3","-0.8893585","0.22839355","9.558502","none","1"
"89657893676007","3","-0.9061279","0.2523346","9.604004","none","1"
"89657913634503","3","-0.93725586","0.24156189","9.768005","none","1"
"89657933623517","3","-0.9073181","0.24754333","9.718918","none","1"
"89657953612530","3","-0.9109192","0.24035645","9.60878","none","1"
"89657973601544","3","-0.914505","0.24633789","9.64949","none","1"
"89657993560040","3","-0.9288635","0.24394226","9.704559","none","1"
"89658013518536","3","-0.9240875","0.24754333","9.718918","none","1"
"89658033507550","3","-0.9109192","0.2523346","9.691391","none","1"
"89658053496563","3","-0.89775085","0.22599792","9.6064","none","1"
"89658073485577","3","-0.9073181","0.23796082","9.683014","none","1"
"89658093474591","3","-0.9216919","0.26071167","9.718918","none","1"
"89658113433087","3","-0.92048645","0.25112915","9.660263","none","1"
"89658133422100","3","-0.9037323","0.23916626","9.650681","none","1"
"89658153411114","3","-0.91929626","0.234375","9.662659","none","1"
"89658173400128","3","-0.9228821","0.24633789","9.703354","none","1"
"89658193389142","3","-0.91929626","0.25352478","9.708145","none","1"
"89658213378155","3","-0.90852356","0.24394226","9.631531","none","1"
"89658233336651","3","-0.9073181","0.2523346","9.673431","none","1"
"89658253325665","3","-0.93006897","0.234375","9.696182","none","1"
"89658273284161","3","-0.92767334","0.25831604","9.690186","none","1"
"89658293273175","3","-0.90133667","0.24156189","9.654282","none","1"
"89658313231671","3","-0.91329956","0.24156189","9.677017","none","1"
"89658333220684","3","-0.92048645","0.24035645","9.681808","none","1"
"89658353209698","3","-0.91929626","0.23677063","9.700958","none","1"
"89658373198712","3","-0.91329956","0.24035645","9.673431","none","1"
"89658393157208","3","-0.91329956","0.23916626","9.655472","none","1"
"89658413146222","3","-0.9061279","0.24275208","9.66745","none","1"
"89658433135235","3","-0.9360504","0.24394226","9.720123","none","1"
"89658453124249","3","-0.914505","0.23077393","9.663849","none","1"
"89658473113263","3","-0.9228821","0.25473022","9.660263","none","1"
"89658493102276","3","-0.9240875","0.23077393","9.683014","none","1"
"89658513060772","3","-0.9324646","0.22958374","9.677017","none","1"
"89658533049786","3","-0.9228821","0.24633789","9.68779","none","1"
"89658553008282","3","-0.90852356","0.25112915","9.692581","none","1"
"89658572997296","3","-0.90252686","0.24156189","9.665054","none","1"
"89658592986309","3","-0.9228821","0.23796082","9.679413","none","1"
"89658612975323","3","-0.90971375","0.23916626","9.677017","none","1"
"89658632933819","3","-0.9156952","0.234375","9.685394","none","1"
"89658652922833","3","-0.9121094","0.23197937","9.691391","none","1"
"89658672881329","3","-0.92767334","0.24873352","9.673431","none","1"
"89658692870343","3","-0.9180908","0.24156189","9.669846","none","1"
"89658712859356","3","-0.9156952","0.2451477","9.677017","none","1"
"89658732848370","3","-0.9240875","0.24035645","9.663849","none","1"
"89658752837384","3","-0.9180908","0.24993896","9.680618","none","1"
"89658772826397","3","-0.9216919","0.23316956","9.706955","none","1"
"89658792784893","3","-0.9156952","0.23677063","9.66745","none","1"
"89658812773907","3","-0.9180908","0.24993896","9.665054","none","1"
"89658832732403","3","-0.9180908","0.25112915","9.673431","none","1"
"89658852721417","3","-0.91690063","0.23916626","9.693787","none","1"
"89658872710431","3","-0.91929626","0.24156189","9.680618","none","1"
"89658892699444","3","-0.9180908","0.24993896","9.675827","none","1"
"89658912657940","3","-0.9252777","0.23916626","9.665054","none","1"
"89658932646954","3","-0.90133667","0.23197937","9.678223","none","1"
"89658952605450","3","-0.9228821","0.24275208","9.683014","none","1"
"89658972594464","3","-0.91929626","0.23796082","9.674622","none","1"
"89658992583477","3","-0.91929626","0.24156189","9.671036","none","1"
"89659012572491","3","-0.914505","0.23197937","9.674622","none","1"
"89659032561505","3","-0.92048645","0.2451477","9.673431","none","1"
"89659052550518","3","-0.90971375","0.24275208","9.66745","none","1"
"89659072509015","3","-0.9121094","0.23796082","9.674622","none","1"
"89659092498028","3","-0.9216919","0.25112915","9.683014","none","1"
"89659112487042","3","-0.914505","0.24633789","9.679413","none","1"
"89659132476056","3","-0.91929626","0.23197937","9.66745","none","1"
"89659152434552","3","-0.9156952","0.24633789","9.6662445","none","1"
"89659172423565","3","-0.9240875","0.23677063","9.68779","none","1"
"89659192382061","3","-0.91929626","0.24275208","9.672226","none","1"
"89659212371075","3","-0.9156952","0.2451477","9.674622","none","1"
"89659232329571","3","-0.9324646","0.24633789","9.66864","none","1"
"89659252318585","3","-0.91690063","0.24156189","9.66864","none","1"
"89659272307599","3","-0.9264679","0.24754333","9.699768","none","1"
"89659292296612","3","-0.90852356","0.24394226","9.678223","none","1"
"89659312285626","3","-0.90971375","0.23197937","9.669846","none","1"
"89659332274640","3","-0.90133667","0.23677063","9.680618","none","1"
"89659352233136","3","-0.92048645","0.25950623","9.684204","none","1"
"89659372222149","3","-0.9109192","0.24873352","9.685394","none","1"
"89659392211163","3","-0.9156952","0.24035645","9.673431","none","1"
"89659412200177","3","-0.93125916","0.24275208","9.663849","none","1"
"89659432158673","3","-0.9216919","0.23677063","9.683014","none","1"
"89659452147686","3","-0.9288635","0.24275208","9.673431","none","1"
"89659472106183","3","-0.90971375","0.25112915","9.681808","none","1"
"89659492095196","3","-0.91690063","0.23556519","9.684204","none","1"
"89659512084210","3","-0.9216919","0.23796082","9.674622","none","1"
"89659532073224","3","-0.9156952","0.23916626","9.691391","none","1"
"89659552031720","3","-0.9061279","0.23916626","9.6866","none","1"
"89659572020733","3","-0.92048645","0.23916626","9.680618","none","1"
"89659592009747","3","-0.92767334","0.22958374","9.673431","none","1"
"89659611998761","3","-0.9156952","0.24754333","9.655472","none","1"
"89659631957257","3","-0.9252777","0.25831604","9.675827","none","1"
"89659651946270","3","-0.9240875","0.2451477","9.688995","none","1"
"89659671935284","3","-0.9288635","0.23796082","9.66864","sit down","1"
"89659691893780","3","-0.9252777","0.24156189","9.66745","sit down","1"
"89659711882794","3","-0.9180908","0.23197937","9.674622","sit down","1"
"89659731871808","3","-0.9216919","0.24035645","9.681808","sit down","1"
"89659751830304","3","-0.91929626","0.24035645","9.6866","sit down","1"
"89659771819317","3","-0.91690063","0.24754333","9.66745","sit down","1"
"89659791808331","3","-0.9336548","0.24156189","9.674622","sit down","1"
"89659811797345","3","-0.93963623","0.24873352","9.685394","sit down","1"
"89659831755841","3","-0.93125916","0.22839355","9.66745","sit down","1"
"89659851744854","3","-0.91329956","0.23796082","9.675827","sit down","1"
"89659871733868","3","-0.9001312","0.24394226","9.680618","sit down","1"
"89659891722882","3","-0.9216919","0.24633789","9.66745","sit down","1"
"89659911711895","3","-0.9216919","0.23796082","9.673431","sit down","1"
"89659931700909","3","-0.9324646","0.23077393","9.671036","sit down","1"
"89659951659405","3","-0.9324646","0.23796082","9.685394","sit down","1"
"89659971648419","3","-0.9264679","0.2451477","9.669846","sit down","1"
"89659991606915","3","-0.90852356","0.24035645","9.678223","sit down","1"
"89660011595929","3","-0.91690063","0.23916626","9.692581","sit down","1"
"89660031584942","3","-0.9180908","0.24873352","9.673431","sit down","1"
"89660051573956","3","-0.9240875","0.24035645","9.656677","sit down","1"
"89660071532452","3","-0.92048645","0.23197937","9.691391","sit down","1"
"89660091521466","3","-0.9228821","0.24873352","9.692581","sit down","1"
"89660111479962","3","-0.9240875","0.2451477","9.66864","sit down","1"
"89660131468975","3","-0.9156952","0.24993896","9.684204","sit down","1"
"89660151457989","3","-0.93006897","0.24394226","9.660263","sit down","1"
"89660171447003","3","-0.93125916","0.23916626","9.651886","sit down","1"
"89660191436017","3","-0.91690063","0.24275208","9.708145","sit down","1"
"89660211394513","3","-0.9228821","0.23316956","9.714127","sit down","1"
"89660231383526","3","-0.91929626","0.23796082","9.632736","sit down","1"
"89660251372540","3","-0.9049225","0.24035645","9.655472","sit down","1"
"89660271331036","3","-0.9348602","0.23916626","9.7285","sit down","1"
"89660291320050","3","-0.91690063","0.23677063","9.627945","sit down","1"
"89660311309063","3","-0.8953552","0.24394226","9.6662445","sit down","1"
"89660331298077","3","-0.91329956","0.24873352","9.684204","sit down","1"
"89660351256573","3","-0.9432373","0.23796082","9.660263","sit down","1"
"89660371245587","3","-0.90971375","0.26669312","9.645905","sit down","1"
"89660391204083","3","-0.914505","0.2523346","9.7285","sit down","1"
"89660411162579","3","-0.93963623","0.23197937","9.7608185","sit down","1"
"89660431182110","3","-0.9216919","0.22958374","9.596817","sit down","1"
"89660451171124","3","-0.8654175","0.2523346","9.605194","sit down","1"
"89660471160138","3","-0.93963623","0.2559204","9.84462","sit down","1"
"89660491149151","3","-0.9803467","0.23316956","9.698563","sit down","1"
"89660511107647","3","-0.8893585","0.21401978","9.459152","sit down","1"
"89660531096661","3","-0.8785858","0.24035645","9.629135","sit down","1"
"89660551055157","3","-0.97914124","0.25473022","9.870956","sit down","1"
"89660571044171","3","-0.9216919","0.24275208","9.708145","sit down","1"
"89660591033184","3","-0.9109192","0.24754333","9.706955","sit down","1"
"89660611022198","3","-0.9109192","0.21401978","9.52739","sit down","1"
"89660630980694","3","-0.91929626","0.23077393","9.630341","sit down","1"
"89660650969708","3","-0.9360504","0.27388","9.796738","sit down","1"
"89660670928204","3","-0.93125916","0.24035645","9.709351","sit down","1"
"89660690917218","3","-0.9037323","0.23077393","9.578857","sit down","1"
"89660710906231","3","-0.91329956","0.23197937","9.659073","sit down","1"
"89660730895245","3","-0.9324646","0.24633789","9.716522","sit down","1"
"89660750884259","3","-0.90852356","0.24275208","9.683014","sit down","1"
"89660770873272","3","-0.9240875","0.24156189","9.629135","sit down","1"
"89660790831768","3","-0.92048645","0.23796082","9.653076","sit down","1"
"89660810820782","3","-0.9109192","0.22718811","9.627945","sit down","1"
"89660830809796","3","-0.9360504","0.26669312","9.916443","sit down","1"
"89660850798809","3","-0.9611969","0.25950623","9.685394","sit down","1"
"89660870757306","3","-0.8534546","0.20803833","9.275986","sit down","1"
"89660890746319","3","-0.9073181","0.24633789","9.920029","sit down","1"
"89660910704815","3","-0.9863281","0.22479248","9.758423","sit down","1"
"89660930693829","3","-0.91329956","0.23916626","9.6662445","sit down","1"
"89660950652325","3","-0.8785858","0.27388","9.60759","sit down","1"
"89660970641339","3","-0.95640564","0.22239685","9.657867","sit down","1"
"89660990630352","3","-0.9109192","0.23916626","9.711731","sit down","1"
"89661010619366","3","-0.93844604","0.24394226","9.706955","sit down","1"
"89661030608380","3","-0.89175415","0.22479248","9.5872345","sit down","1"
"89661050597393","3","-0.9432373","0.2631073","9.783569","sit down","1"
"89661070555890","3","-0.9552002","0.2236023","9.639908","sit down","1"
"89661090544903","3","-0.8642273","0.23197937","9.659073","sit down","1"
"89661110533917","3","-0.9049225","0.25831604","9.648285","sit down","1"
"89661130522931","3","-0.94802856","0.24035645","9.732086","sit down","1"
"89661150481427","3","-0.89775085","0.2571106","9.704559","sit down","1"
"89661170470440","3","-0.9228821","0.23556519","9.638718","sit down","1"
"89661190428936","3","-0.9180908","0.23916626","9.717728","sit down","1"
"89661210417950","3","-0.91690063","0.23916626","9.50943","sit down","1"
"89661230406964","3","-0.8929596","0.2678833","9.736877","sit down","1"
"89661250395977","3","-0.9635773","0.27388","9.937988","sit down","1"
"89661270354474","3","-0.97914124","0.2164154","9.576462","sit down","1"
"89661290343487","3","-0.79359436","0.22479248","9.231705","sit down","1"
"89661310332501","3","-0.96836853","0.28823853","10.184586","sit down","1"
"89661330321515","3","-0.9767456","0.24394226","9.600403","sit down","1"
"89661350310528","3","-0.8438721","0.22120667","9.384933","sit down","1"
"89661370299542","3","-0.99710083","0.29782104","9.771591","sit down","1"
"89661390258038","3","-0.97795105","0.15536499","9.536957","sit down","1"
"89661410247052","3","-0.80436707","0.24394226","9.887711","sit down","1"
"89661430205548","3","-0.93006897","0.3361206","9.595612","sit down","1"
"89661450194561","3","-1.0042877","0.23916626","9.511826","sit down","1"
"89661470153058","3","-0.9444275","0.2559204","9.838623","sit down","1"
"89661490142071","3","-0.7457123","0.22000122","9.623154","sit down","1"
"89661510131085","3","-0.85224915","0.19007874","9.708145","sit down","1"
"89661530120099","3","-0.9552002","0.19366455","9.732086","sit down","1"
"89661550078595","3","-1.072525","0.21522522","9.799133","sit down","1"
"89661570067608","3","-0.98153687","0.33972168","9.51062","sit down","1"
"89661590056622","3","-0.74331665","0.35766602","9.52858","sit down","1"
"89661610045636","3","-0.7971802","0.30978394","9.716522","sit down","1"
"89661630034649","3","-1.1599121","0.16374207","9.796738","sit down","1"
"89661650023663","3","-0.9983063","0.20803833","9.530975","sit down","1"
"89661669982159","3","-0.74690247","0.18409729","9.37056","sit down","1"
"89661689971173","3","-1.0306244","0.28704834","9.811096","sit down","1"
"89661709929669","3","-1.3490448","0.32055664","10.049316","sit down","1"
"89661729918683","3","-1.2963715","0.17930603","9.759628","sit down","1"
"89661749907696","3","-1.0342102","0.101486206","9.381332","sit down","1"
"89661769896710","3","-0.30038452","0.28944397","9.538162","sit down","1"
"89661789855206","3","-1.250885","0.039245605","10.25882","sit down","1"
"89661809844220","3","-1.3095398","-0.013427734","9.481888","sit down","1"
"89661829802716","3","0.36639404","0.5516052","9.2341","sit down","1"
"89661849791729","3","-0.08131409","0.27027893","9.744064","sit down","1"
"89661869780743","3","-0.77923584","-0.111587524","9.982285","sit down","1"
"89661889769757","3","-0.29800415","0.27267456","9.662659","sit down","1"
"89661909758770","3","-0.13519287","0.40675354","9.604004","sit down","1"
"89661929717267","3","-0.3841858","0.19845581","9.7452545","sit down","1"
"89661949675763","3","-0.38539124","0.15655518","9.697372","sit down","1"
"89661969664776","3","-0.37580872","0.2236023","9.706955","sit down","1"
"89661989623272","3","-0.45961","0.20803833","9.778778","sit down","1"
"89662009612286","3","-0.45721436","0.18049622","9.694977","sit down","1"
"89662029601300","3","-0.40933228","0.1661377","9.645905","sit down","1"
"89662049590313","3","-0.35186768","0.15655518","9.74646","sit down","1"
"89662069579327","3","-0.37461853","0.20803833","9.753632","sit down","1"
"89662089568341","3","-0.38897705","0.26190186","9.694977","sit down","1"
"89662109526837","3","-0.38179016","0.27746582","9.644699","sit down","1"
"89662129515850","3","-0.40333557","0.28105164","9.704559","sit down","1"
"89662149504864","3","-0.3554535","0.22239685","9.714127","sit down","1"
"89662169493878","3","-0.31236267","0.21162415","9.7285","sit down","1"
"89662189482892","3","-0.37820435","0.2678833","9.698563","sit down","1"
"89662209471905","3","-0.31834412","0.2559204","9.708145","sit down","1"
"89662229430401","3","-0.24533081","0.2236023","9.742859","sit down","1"
"89662249419415","3","-0.23814392","0.19487","9.704559","sit down","1"
"89662269377911","3","-0.26927185","0.19845581","9.723709","sit down","1"
"89662289366925","3","-0.29200745","0.20922852","9.724899","sit down","1"
"89662309355938","3","-0.25610352","0.20324707","9.651886","sit down","1"
"89662329344952","3","-0.2967987","0.2056427","9.671036","sit down","1"
"89662349303448","3","-0.32432556","0.2164154","9.722519","sit down","1"
"89662369292462","3","-0.2644806","0.22120667","9.736877","sit down","1"
"89662389250958","3","-0.22616577","0.22239685","9.679413","sit down","1"
"89662409239972","3","-0.24293518","0.21760559","9.678223","sit down","1"
"89662429228985","3","-0.25610352","0.22718811","9.708145","sit down","1"
"89662449217999","3","-0.24053955","0.22120667","9.730896","sit down","1"
"89662469207013","3","-0.25610352","0.21760559","9.734482","sit down","1"
"89662489196026","3","-0.23216248","0.20443726","9.68779","sit down","1"
"89662509154522","3","-0.286026","0.19487","9.672226","sit down","1"
"89662529143536","3","-0.29800415","0.21162415","9.721313","sit down","1"
"89662549132550","3","-0.33032227","0.20922852","9.688995","sit down","1"
"89662569121563","3","-0.25610352","0.17332458","9.716522","sit down","1"
"89662589080059","3","-0.23693848","0.17572021","9.690186","sit down","1"
"89662609069073","3","-0.24053955","0.2164154","9.694977","sit down","1"
"89662629027569","3","-0.2788391","0.21881104","9.727295","sit down","1"
"89662649016583","3","-0.35186768","0.21162415","9.718918","sit down","1"
"89662668975079","3","-0.3542633","0.19966125","9.706955","sit down","1"
"89662688964093","3","-0.28961182","0.21282959","9.66864","sit down","1"
"89662708953106","3","-0.2872162","0.2571106","9.696182","sit down","1"
"89662728942120","3","-0.32432556","0.24394226","9.715332","sit down","1"
"89662748931134","3","-0.3374939","0.21522522","9.645905","sit down","1"
"89662768920147","3","-0.3434906","0.20205688","9.680618","sit down","1"
"89662788878643","3","-0.30517578","0.22718811","9.691391","sit down","1"
"89662808867657","3","-0.27644348","0.25112915","9.716522","sit down","1"
"89662828856671","3","-0.29919434","0.24035645","9.692581","sit down","1"
"89662848845684","3","-0.30996704","0.21282959","9.681808","sit down","1"
"89662868804181","3","-0.32073975","0.21162415","9.741669","sit down","1"
"89662888793194","3","-0.31954956","0.21282959","9.700958","sit down","1"
"89662908751690","3","-0.3147583","0.21881104","9.704559","sit down","1"
"89662928740704","3","-0.325531","0.21282959","9.698563","sit down","1"
"89662948729718","3","-0.31355286","0.19845581","9.697372","sit down","1"
"89662968718731","3","-0.3039856","0.20803833","9.7057495","sit down","1"
"89662988677227","3","-0.30517578","0.22479248","9.68779","sit down","1"
"89663008666241","3","-0.28842163","0.22479248","9.702164","sit down","1"
"89663028624737","3","-0.31115723","0.22599792","9.697372","sit down","1"
"89663048613751","3","-0.32432556","0.22120667","9.691391","sit down","1"
"89663068572247","3","-0.3327179","0.22718811","9.711731","sit down","1"
"89663088561261","3","-0.29800415","0.22599792","9.685394","sit down","1"
"89663108550274","3","-0.31355286","0.20803833","9.691391","sit down","1"
"89663128539288","3","-0.33511353","0.19845581","9.703354","sit down","1"
"89663148528302","3","-0.3267212","0.22599792","9.709351","sit down","1"
"89663168517315","3","-0.32432556","0.21881104","9.681808","sit down","1"
"89663188475811","3","-0.3267212","0.20922852","9.698563","sit down","1"
"89663208464825","3","-0.30877686","0.21162415","9.704559","sit down","1"
"89663228453839","3","-0.3219452","0.21282959","9.708145","sit down","1"
"89663248442852","3","-0.32432556","0.2164154","9.693787","sit down","1"
"89663268401349","3","-0.3147583","0.22839355","9.694977","sit down","1"
"89663288390362","3","-0.31355286","0.20803833","9.704559","sit down","1"
"89663308379376","3","-0.32432556","0.19966125","9.691391","sit down","1"
"89663328368390","3","-0.31236267","0.2056427","9.709351","sit down","1"
"89663348357403","3","-0.31115723","0.21881104","9.694977","sit down","1"
"89663368346417","3","-0.30638123","0.20443726","9.700958","sit down","1"
"89663388304913","3","-0.30158997","0.20205688","9.692581","sit down","1"
"89663408293927","3","-0.30158997","0.20803833","9.688995","sit down","1"
"89663428252423","3","-0.31236267","0.22839355","9.699768","sit down","1"
"89663448241436","3","-0.30158997","0.22839355","9.697372","sit down","1"
"89663468199933","3","-0.30517578","0.21881104","9.698563","sit down","1"
"89663488188946","3","-0.32792664","0.20683289","9.683014","sit down","1"
"89663508177960","3","-0.31355286","0.21401978","9.683014","sit down","1"
"89663528166974","3","-0.30996704","0.23197937","9.706955","sit down","1"
"89663548125470","3","-0.31834412","0.21401978","9.717728","sit down","1"
"89663568114483","3","-0.31115723","0.21282959","9.693787","sit down","1"
"89663588103497","3","-0.32073975","0.21401978","9.697372","sit down","1"
"89663608092511","3","-0.3219452","0.21881104","9.696182","sit down","1"
"89663628081524","3","-0.29800415","0.21282959","9.715332","sit down","1"
"89663648070538","3","-0.2967987","0.22000122","9.697372","sit down","1"
"89663668029034","3","-0.30158997","0.22120667","9.706955","lay down","1"
"89663688018048","3","-0.30278015","0.22000122","9.703354","lay down","1"
"89663707976544","3","-0.30278015","0.2236023","9.711731","lay down","1"
"89663727965558","3","-0.30158997","0.21401978","9.706955","lay down","1"
"89663747924054","3","-0.3075714","0.20803833","9.68779","lay down","1"
"89663767913067","3","-0.31355286","0.20324707","9.691391","lay down","1"
"89663787902081","3","-0.31236267","0.20683289","9.684204","lay down","1"
"89663807891095","3","-0.30517578","0.21162415","9.698563","lay down","1"
"89663827849591","3","-0.29919434","0.21881104","9.7057495","lay down","1"
"89663847838604","3","-0.31236267","0.20205688","9.683014","lay down","1"
"89663867827618","3","-0.31834412","0.21401978","9.683014","lay down","1"
"89663887816632","3","-0.3075714","0.20803833","9.683014","lay down","1"
"89663907805645","3","-0.3327179","0.20324707","9.703354","lay down","1"
"89663927794659","3","-0.33032227","0.18170166","9.690186","lay down","1"
"89663947753155","3","-0.34588623","0.19007874","9.679413","lay down","1"
"89663967742169","3","-0.30996704","0.20443726","9.690186","lay down","1"
"89663987700665","3","-0.32073975","0.19007874","9.726105","lay down","1"
"89664007689679","3","-0.3147583","0.21162415","9.696182","lay down","1"
"89664027678692","3","-0.2537079","0.21522522","9.691391","lay down","1"
"89664047667706","3","-0.25131226","0.20205688","9.680618","lay down","1"
"89664067626202","3","-0.28961182","0.25352478","9.751236","lay down","1"
"89664087615216","3","-0.3363037","0.24993896","9.752441","lay down","1"
"89664107573712","3","-0.28842163","0.27388","9.694977","lay down","1"
"89664127532208","3","-0.246521","0.28823853","9.685394","lay down","1"
"89664147521222","3","-0.2788391","0.24275208","9.698563","lay down","1"
"89664167510235","3","-0.2967987","0.21881104","9.690186","lay down","1"
"89664187499249","3","-0.28483582","0.20085144","9.697372","lay down","1"
"89664207518780","3","-0.2393341","0.21760559","9.66864","lay down","1"
"89664227477276","3","-0.23574829","0.22120667","9.700958","lay down","1"
"89664247466290","3","-0.28004456","0.1876831","9.722519","lay down","1"
"89664267424786","3","-0.27404785","0.18049622","9.708145","lay down","1"
"89664287413800","3","-0.29919434","0.21043396","9.697372","lay down","1"
"89664307402813","3","-0.3734131","0.24035645","9.68779","lay down","1"
"89664327391827","3","-0.30877686","0.23316956","9.697372","lay down","1"
"89664347350323","3","-0.33032227","0.25112915","9.7057495","lay down","1"
"89664367339337","3","-0.33869934","0.22239685","9.704559","lay down","1"
"89664387297833","3","-0.28123474","0.20683289","9.683014","lay down","1"
"89664407286847","3","-0.31954956","0.21043396","9.690186","lay down","1"
"89664427275860","3","-0.30996704","0.23077393","9.708145","lay down","1"
"89664447264874","3","-0.27764893","0.2571106","9.6866","lay down","1"
"89664467253888","3","-0.3039856","0.22000122","9.697372","lay down","1"
"89664487242901","3","-0.3039856","0.13980103","9.710541","lay down","1"
"89664507201397","3","-0.30278015","0.12663269","9.704559","lay down","1"
"89664527190411","3","-0.32792664","0.15655518","9.702164","lay down","1"
"89664547179425","3","-0.29800415","0.19247437","9.6866","lay down","1"
"89664567168438","3","-0.26927185","0.18170166","9.727295","lay down","1"
"89664587126934","3","-0.31954956","0.19487","9.711731","lay down","1"
"89664607115948","3","-0.33511353","0.15776062","9.703354","lay down","1"
"89664627074444","3","-0.36024475","0.20085144","9.739273","lay down","1"
"89664647063458","3","-0.3662262","0.22239685","9.700958","lay down","1"
"89664667021954","3","-0.33032227","0.21401978","9.6866","lay down","1"
"89664687010968","3","-0.33151245","0.22839355","9.661453","lay down","1"
"89664706999981","3","-0.39616394","0.19487","9.656677","lay down","1"
"89664726988995","3","-0.40093994","0.16732788","9.736877","lay down","1"
"89664746978009","3","-0.47277832","0.2164154","9.7608185","lay down","1"
"89664766967022","3","-0.40333557","0.20443726","9.708145","lay down","1"
"89664786925518","3","-0.35186768","0.20085144","9.643509","lay down","1"
"89664806914532","3","-0.5936737","0.21401978","9.704559","lay down","1"
"89664826903546","3","-0.780426","0.18409729","9.756027","lay down","1"
"89664846892559","3","-0.45361328","0.055999756","9.771591","lay down","1"
"89664866851056","3","-0.23574829","-0.12954712","9.627945","lay down","1"
"89664886840069","3","-0.52545166","-0.15229797","9.581253","lay down","1"
"89664906790716","3","-0.31236267","0.20443726","9.842224","lay down","1"
"89664926779730","3","-0.071746826","0.47019958","9.656677","lay down","1"
"89664946768744","3","-0.4811554","0.23556519","9.539352","lay down","1"
"89664966757757","3","-0.82351685","0.11227417","9.795532","lay down","1"
"89664986716253","3","-0.4919281","0.0045318604","9.7057495","lay down","1"
"89665006705267","3","-0.44044495","0.118255615","9.590836","lay down","1"
"89665026694281","3","-0.70262146","0.29063416","9.744064","lay down","1"
"89665046683294","3","-0.77204895","0.33493042","9.7285","lay down","1"
"89665066641791","3","-0.7181854","0.18409729","9.581253","lay down","1"
"89665086630804","3","-0.6188202","0.1481781","9.679413","lay down","1"
"89665106619818","3","-0.64157104","0.15177917","9.700958","lay down","1"
"89665126608832","3","-0.6978302","0.16732788","9.639908","lay down","1"
"89665146567328","3","-0.5685425","0.19007874","9.653076","lay down","1"
"89665166556341","3","-0.42848206","0.23916626","9.693787","lay down","1"
"89665186514837","3","-0.53862","0.14459229","9.604004","lay down","1"
"89665206503851","3","-0.5972748","0.111068726","9.651886","lay down","1"
"89665226492865","3","-0.6762848","0.16374207","9.629135","lay down","1"
"89665246481878","3","-0.73373413","0.19487","9.699768","lay down","1"
"89665266440375","3","-0.56733704","0.25950623","9.837433","lay down","1"
"89665286429388","3","-0.14477539","0.17211914","9.617172","lay down","1"
"89665306418402","3","0.11859131","-0.07926941","9.532166","lay down","1"
"89665326407416","3","-0.15792847","-0.030181885","9.637512","lay down","1"
"89665346396429","3","-0.6212158","0.103881836","9.702164","lay down","1"
"89665366385443","3","-0.5457916","0.089523315","9.802719","lay down","1"
"89665386343939","3","-0.47157288","0.19126892","9.718918","lay down","1"
"89665406332953","3","-0.9336548","0.25831604","9.703354","lay down","1"
"89665426291449","3","-1.0593567","0.20683289","9.680618","lay down","1"
"89665446280462","3","-0.6954346","0.0859375","9.831451","lay down","1"
"89665466238959","3","-0.48234558","-0.08885193","9.841019","lay down","1"
"89665486227972","3","-0.5003052","-0.20974731","9.843414","lay down","1"
"89665506216986","3","-0.45361328","-0.080459595","9.785965","lay down","1"
"89665526206000","3","-0.2872162","-0.075683594","9.733292","lay down","1"
"89665546164496","3","-0.32432556","-0.13433838","9.74646","lay down","1"
"89665566153509","3","-0.36024475","-0.049346924","9.6662445","lay down","1"
"89665586142523","3","-0.25489807","-0.049346924","9.605194","lay down","1"
"89665606131537","3","-0.5709381","0.12423706","9.7057495","lay down","1"
"89665626120550","3","-0.79359436","0.12902832","9.672226","lay down","1"
"89665646109564","3","-0.622406","0.065582275","9.57048","lay down","1"
"89665666068060","3","-0.56495667","-0.0038452148","9.66745","lay down","1"
"89665686057074","3","-0.6152344","0.044036865","9.633926","lay down","1"
"89665706015570","3","-0.6882477","-0.001449585","9.57048","lay down","1"
"89665726004584","3","-0.79000854","-0.16546631","9.60878","lay down","1"
"89665745963080","3","-0.6319885","0.0045318604","9.734482","lay down","1"
"89665765952093","3","-0.27764893","0.3816223","9.869751","lay down","1"
"89665785941107","3","-0.42967224","0.5097046","9.592026","lay down","1"
"89665805930121","3","-0.80197144","0.40196228","9.426834","lay down","1"
"89665825888617","3","-0.8642273","0.17451477","9.698563","lay down","1"
"89665845877630","3","-0.8941498","-0.08406067","9.764404","lay down","1"
"89665865866644","3","-0.8833771","-0.0062408447","9.723709","lay down","1"
"89665885855658","3","-0.76846313","0.17332458","9.557312","lay down","1"
"89665905844671","3","-0.67388916","0.17092896","9.605194","lay down","1"
"89665925833685","3","-0.65592957","0.053604126","9.740463","lay down","1"
"89665945792181","3","-0.5278473","-0.073287964","9.637512","lay down","1"
"89665965750677","3","-0.38539124","0.003326416","9.700958","lay down","1"
"89665985739691","3","-0.53382874","0.115859985","9.781174","lay down","1"
"89666005728705","3","-0.6116333","0.01171875","9.751236","lay down","1"
"89666025717718","3","-0.3829956","-0.121170044","9.835037","lay down","1"
"89666045706732","3","-0.43206787","-0.22052002","9.835037","lay down","1"
"89666065665228","3","-0.5242462","-0.118774414","9.684204","lay down","1"
"89666085654242","3","-0.5206604","0.14099121","9.752441","lay down","1"
"89666105612738","3","-0.34707642","0.4630127","10.14389","lay down","1"
"89666125601751","3","-0.3829956","0.35168457","9.799133","lay down","1"
"89666145590765","3","-0.8343048","9.3078613E-4","9.349014","lay down","1"
"89666165579779","3","-0.8450775","-0.0289917","9.393311","lay down","1"
"89666185568793","3","-0.8163452","0.10987854","9.815887","lay down","1"
"89666205557806","3","-0.8366852","0.17811584","9.94397","lay down","1"
"89666225516302","3","-0.6702881","0.15177917","9.442383","lay down","1"
"89666245505316","3","-0.75289917","0.03565979","9.41127","lay down","1"
"89666265463812","3","-0.8091583","-0.001449585","9.739273","lay down","1"
"89666285452826","3","-0.76486206","0.1194458","9.66745","lay down","1"
"89666305441839","3","-0.69662476","0.1589508","9.66864","lay down","1"
"89666325430853","3","-0.7074127","0.106277466","9.66745","lay down","1"
"89666345389349","3","-0.68466187","0.05960083","9.637512","lay down","1"
"89666365378363","3","-0.701416","0.022491455","9.736877","lay down","1"
"89666385336859","3","-0.6702881","0.003326416","9.729691","lay down","1"
"89666405325873","3","-0.5529785","0.017700195","9.673431","lay down","1"
"89666425314886","3","-0.55537415","0.08354187","9.64949","lay down","1"
"89666445303900","3","-0.61402893","0.084732056","9.703354","lay down","1"
"89666465292914","3","-0.65592957","0.1374054","9.703354","lay down","1"
"89666485281927","3","-0.67388916","0.123046875","9.647095","lay down","1"
"89666505240423","3","-0.6954346","0.108673096","9.659073","lay down","1"
"89666525229437","3","-0.6583252","0.10987854","9.678223","lay down","1"
"89666545187933","3","-0.62480164","0.11705017","9.697372","lay down","1"
"89666565176947","3","-0.6547394","0.08354187","9.700958","lay down","1"
"89666585165960","3","-0.69303894","0.082336426","9.711731","lay down","1"
"89666605154974","3","-0.6260071","0.09310913","9.68779","lay down","1"
"89666625113470","3","-0.6200104","0.08833313","9.692581","lay down","1"
"89666645102484","3","-0.6655121","0.09790039","9.696182","lay down","1"
"89666665060980","3","-0.6894531","0.10029602","9.718918","lay down","1"
"89666685049994","3","-0.68585205","0.09310913","9.7057495","lay down","1"
"89666705039007","3","-0.6798706","0.103881836","9.66864","lay down","1"
"89666725028021","3","-0.6726837","0.108673096","9.685394","lay down","1"
"89666745017035","3","-0.6786804","0.087127686","9.685394","lay down","1"
"89666765006048","3","-0.68466187","0.072769165","9.679413","lay down","1"
"89666784964544","3","-0.6894531","0.079940796","9.673431","lay down","1"
"89666804953558","3","-0.67388916","0.07156372","9.696182","lay down","1"
"89666824942572","3","-0.6499481","0.077545166","9.693787","lay down","1"
"89666844931585","3","-0.6511383","0.075164795","9.681808","lay down","1"
"89666864890082","3","-0.66430664","0.087127686","9.700958","lay down","1"
"89666884879095","3","-0.6475525","0.07635498","9.678223","lay down","1"
"89666904837591","3","-0.6547394","0.0907135","9.703354","lay down","1"
"89666924826605","3","-0.6655121","0.10269165","9.6866","lay down","1"
"89666944785101","3","-0.65353394","0.079940796","9.677017","lay down","1"
"89666964774115","3","-0.64515686","0.072769165","9.679413","lay down","1"
"89666984763128","3","-0.6655121","0.058395386","9.6866","lay down","1"
"89667004752142","3","-0.6367798","0.0859375","9.696182","lay down","1"
"89667024741156","3","-0.6487427","0.082336426","9.693787","lay down","1"
"89667044730169","3","-0.65353394","0.077545166","9.692581","lay down","1"
"89667064688666","3","-0.6547394","0.084732056","9.690186","lay down","1"
"89667084677679","3","-0.66311646","0.0907135","9.693787","lay down","1"
"89667104666693","3","-0.67149353","0.087127686","9.6866","lay down","1"
"89667124655707","3","-0.6882477","0.07395935","9.657867","lay down","1"
"89667144614203","3","-0.67507935","0.087127686","9.6866","lay down","1"
"89667164603216","3","-0.68226624","0.08833313","9.698563","lay down","1"
"89667184561712","3","-0.6786804","0.07875061","9.691391","lay down","1"
"89667204550726","3","-0.66430664","0.09550476","9.675827","lay down","1"
"89667224509222","3","-0.6547394","0.08833313","9.678223","lay down","1"
"89667244498236","3","-0.6547394","0.0907135","9.677017","lay down","1"
