"Timestamp","Accuracy","Acceleration X","Acceleration Y","Acceleration Z","Label","Cycle"
"90538797507719","3","-1.2544861","-0.53297424","10.313873","none","0"
"90538817466215","3","-1.4029236","-0.01940918","10.45993","none","0"
"90538837424711","3","-0.07533264","0.625824","9.150299","none","0"
"90538857413725","3","-0.31355286","0.20443726","9.592026","none","0"
"90538877402739","3","-0.8857727","0.16853333","10.0576935","none","0"
"90538897391752","3","-0.40693665","0.32894897","9.473511","none","0"
"90538917380766","3","-0.57691956","0.21760559","9.690186","none","0"
"90538937369780","3","-0.57691956","0.2451477","9.726105","none","0"
"90538957328276","3","-0.52305603","0.27148438","9.727295","none","0"
"90538977317289","3","-0.5793152","0.24156189","9.661453","none","0"
"90538997275785","3","-0.53741455","0.25473022","9.641113","none","0"
"90539017264799","3","-0.578125","0.25831604","9.7608185","none","0"
"90539037253813","3","-0.5637512","0.24754333","9.68779","none","0"
"90539057242826","3","-0.57572937","0.24754333","9.693787","none","0"
"90539077201323","3","-0.5410156","0.2523346","9.660263","none","0"
"90539097190336","3","-0.56495667","0.2523346","9.708145","none","0"
"90539117148832","3","-0.5529785","0.2451477","9.711731","none","0"
"90539137168364","3","-0.55895996","0.24394226","9.698563","none","0"
"90539157157377","3","-0.5601654","0.23796082","9.66864","none","0"
"90539177146391","3","-0.5541687","0.2678833","9.698563","none","0"
"90539197135405","3","-0.5637512","0.25112915","9.727295","none","0"
"90539217124418","3","-0.5601654","0.24993896","9.672226","none","0"
"90539237082914","3","-0.53382874","0.25831604","9.66745","none","0"
"90539257071928","3","-0.5637512","0.26190186","9.698563","none","0"
"90539277060942","3","-0.5601654","0.2678833","9.699768","none","0"
"90539297049955","3","-0.56614685","0.25473022","9.677017","none","0"
"90539317008451","3","-0.56733704","0.24275208","9.671036","none","0"
"90539336997465","3","-0.56614685","0.23796082","9.692581","none","0"
"90539356955961","3","-0.5709381","0.2571106","9.699768","none","0"
"90539376944975","3","-0.5601654","0.2451477","9.685394","none","0"
"90539396933989","3","-0.55895996","0.2571106","9.704559","none","0"
"90539416923002","3","-0.5637512","0.2523346","9.710541","none","0"
"90539436912016","3","-0.56614685","0.26071167","9.712936","none","0"
"90539456901030","3","-0.56733704","0.25112915","9.650681","none","0"
"90539476859526","3","-0.56256104","0.2451477","9.694977","none","0"
"90539496848539","3","-0.5613556","0.24633789","9.714127","none","0"
"90539516837553","3","-0.5709381","0.234375","9.680618","none","0"
"90539536826567","3","-0.5505829","0.26190186","9.681808","none","0"
"90539556785063","3","-0.55537415","0.2571106","9.696182","none","0"
"90539576774076","3","-0.5505829","0.24633789","9.716522","none","0"
"90539596732573","3","-0.55656433","0.25473022","9.699768","none","0"
"90539616721586","3","-0.5601654","0.24993896","9.6662445","none","0"
"90539636680082","3","-0.5601654","0.25112915","9.712936","none","0"
"90539656669096","3","-0.5721283","0.2571106","9.710541","none","0"
"90539676658110","3","-0.56495667","0.23316956","9.662659","none","0"
"90539696647123","3","-0.5505829","0.25352478","9.679413","none","0"
"90539716636137","3","-0.578125","0.25831604","9.712936","none","0"
"90539736625151","3","-0.56614685","0.27267456","9.700958","none","0"
"90539756583647","3","-0.56495667","0.25112915","9.663849","none","0"
"90539776572660","3","-0.5601654","0.23916626","9.654282","none","0"
"90539796500639","3","-0.56495667","0.26669312","9.716522","none","0"
"90539816489653","3","-0.56733704","0.2571106","9.741669","none","0"
"90539836448149","3","-0.55178833","0.24035645","9.673431","none","0"
"90539856437162","3","-0.5469971","0.24633789","9.620758","none","0"
"90539876426176","3","-0.56495667","0.24873352","9.715332","none","0"
"90539896415190","3","-0.56733704","0.2523346","9.708145","none","0"
"90539916404203","3","-0.54460144","0.24873352","9.680618","none","0"
"90539936393217","3","-0.54460144","0.25950623","9.690186","none","0"
"90539956351713","3","-0.5613556","0.23796082","9.717728","none","0"
"90539976340727","3","-0.5493927","0.2559204","9.660263","none","0"
"90539996329741","3","-0.5278473","0.27388","9.724899","none","0"
"90540016318754","3","-0.5577698","0.28944397","9.805115","none","0"
"90540036307768","3","-0.5936737","0.23077393","9.692581","none","0"
"90540056296782","3","-0.53622437","0.20922852","9.454361","none","0"
"90540076255278","3","-0.5242462","0.28344727","9.650681","none","0"
"90540096244291","3","-0.58769226","0.26669312","9.969116","none","0"
"90540116202787","3","-0.578125","0.27148438","9.690186","none","0"
"90540136191801","3","-0.5398102","0.25950623","9.51062","none","0"
"90540156180815","3","-0.5505829","0.20085144","9.693787","none","0"
"90540176139311","3","-0.5601654","0.26550293","9.7668","none","0"
"90540196128325","3","-0.5637512","0.28105164","9.735687","none","0"
"90540216117338","3","-0.54818726","0.23556519","9.623154","none","0"
"90540236075834","3","-0.55895996","0.22479248","9.672226","none","0"
"90540256064848","3","-0.56495667","0.24394226","9.753632","none","0"
"90540276053862","3","-0.5685425","0.2750702","9.662659","none","0"
"90540296042875","3","-0.5577698","0.27867126","9.6662445","none","0"
"90540316031889","3","-0.55178833","0.2451477","9.7057495","none","0"
"90540336020903","3","-0.5721283","0.2451477","9.700958","none","0"
"90540355979399","3","-0.5685425","0.24754333","9.6866","none","0"
"90540375968412","3","-0.5457916","0.2642975","9.703354","none","0"
"90540395926909","3","-0.5469971","0.25352478","9.662659","none","0"
"90540415915922","3","-0.5469971","0.23316956","9.702164","none","0"
"90540435904936","3","-0.56256104","0.25112915","9.714127","none","0"
"90540455893950","3","-0.55656433","0.2571106","9.660263","none","0"
"90540475852446","3","-0.5577698","0.2523346","9.677017","none","0"
"90540495841459","3","-0.5493927","0.24633789","9.672226","none","0"
"90540515799955","3","-0.5613556","0.25112915","9.685394","none","0"
"90540535788969","3","-0.5637512","0.27267456","9.722519","none","0"
"90540555777983","3","-0.5685425","0.2559204","9.6866","none","0"
"90540575766996","3","-0.55537415","0.23677063","9.637512","none","0"
"90540595756010","3","-0.56256104","0.24275208","9.678223","none","0"
"90540615745024","3","-0.53741455","0.2858429","9.752441","none","0"
"90540635703520","3","-0.60206604","0.27746582","9.795532","none","0"
"90540655692534","3","-0.5541687","0.2056427","9.56929","none","0"
"90540675681547","3","-0.5027008","0.28344727","9.507034","none","0"
"90540695670561","3","-0.60446167","0.2678833","10.016998","none","0"
"90540715629057","3","-0.5900879","0.23197937","9.704559","none","0"
"90540735618071","3","-0.53382874","0.26908875","9.425629","none","0"
"90540755576567","3","-0.56495667","0.2164154","9.754837","none","0"
"90540775565580","3","-0.55537415","0.2451477","9.759628","none","0"
"90540795554594","3","-0.56973267","0.3145752","9.721313","none","0"
"90540815543608","3","-0.56614685","0.24394226","9.665054","none","0"
"90540835502104","3","-0.543396","0.2164154","9.592026","none","0"
"90540855491118","3","-0.5685425","0.26190186","9.789551","none","0"
"90540875480131","3","-0.57691956","0.24754333","9.74765","none","0"
"90540895438627","3","-0.5493927","0.2559204","9.594421","none","0"
"90540915397123","3","-0.56614685","0.23677063","9.750046","none","0"
"90540935386137","3","-0.56614685","0.22239685","9.724899","none","0"
"90540955375151","3","-0.5505829","0.27627563","9.677017","none","0"
"90540975364164","3","-0.5637512","0.25831604","9.715332","none","0"
"90540995353178","3","-0.54460144","0.23316956","9.64949","none","0"
"90541015342192","3","-0.5577698","0.25352478","9.704559","none","0"
"90541035300688","3","-0.57572937","0.24633789","9.758423","none","0"
"90541055289701","3","-0.5577698","0.2559204","9.644699","none","0"
"90541075278715","3","-0.54818726","0.26669312","9.698563","none","0"
"90541095267729","3","-0.56256104","0.24754333","9.723709","none","0"
"90541115226225","3","-0.5529785","0.23677063","9.672226","none","0"
"90541135215239","3","-0.55895996","0.25950623","9.661453","none","0"
"90541155204252","3","-0.54818726","0.24754333","9.694977","none","0"
"90541175193266","3","-0.5410156","0.2750702","9.726105","none","0"
"90541195182280","3","-0.5745239","0.2846527","9.727295","none","0"
"90541215171293","3","-0.56256104","0.23077393","9.675827","none","0"
"90541235129789","3","-0.54460144","0.23916626","9.653076","none","0"
"90541255118803","3","-0.5793152","0.26908875","9.787155","none","0"
"90541275077299","3","-0.5505829","0.2642975","9.692581","none","0"
"90541295066313","3","-0.56733704","0.2451477","9.60759","none","0"
"90541315055326","3","-0.578125","0.22000122","9.68779","none","0"
"90541335044340","3","-0.5505829","0.24754333","9.722519","none","0"
"90541355002836","3","-0.55537415","0.30500793","9.661453","none","0"
"90541374991850","3","-0.5709381","0.27148438","9.661453","none","0"
"90541394950346","3","-0.5529785","0.22958374","9.665054","none","0"
"90541414939360","3","-0.5601654","0.21881104","9.752441","none","0"
"90541434928373","3","-0.5541687","0.2642975","9.710541","none","0"
"90541454917387","3","-0.58769226","0.27986145","9.675827","none","0"
"90541474906401","3","-0.55895996","0.24873352","9.681808","none","0"
"90541494895414","3","-0.5529785","0.24993896","9.702164","none","0"
"90541514853910","3","-0.57333374","0.23677063","9.729691","none","0"
"90541534842924","3","-0.5493927","0.25950623","9.657867","none","0"
"90541554831938","3","-0.5505829","0.27267456","9.675827","none","0"
"90541574820951","3","-0.5685425","0.23916626","9.706955","none","0"
"90541594779448","3","-0.56495667","0.23197937","9.690186","none","0"
"90541614768461","3","-0.56256104","0.25352478","9.685394","none","0"
"90541634726957","3","-0.5398102","0.25950623","9.691391","none","0"
"90541654715971","3","-0.5541687","0.26190186","9.712936","none","0"
"90541674704985","3","-0.5541687","0.24633789","9.724899","none","0"
"90541694693998","3","-0.5637512","0.23916626","9.674622","none","0"
"90541714683012","3","-0.56256104","0.25112915","9.680618","none","0"
"90541734672026","3","-0.55537415","0.2559204","9.697372","none","0"
"90541754630522","3","-0.5577698","0.2523346","9.685394","none","0"
"90541774619535","3","-0.55537415","0.23556519","9.703354","none","0"
"90541794608549","3","-0.5721283","0.24633789","9.693787","none","0"
"90541814597563","3","-0.5613556","0.24275208","9.671036","none","0"
"90541834556059","3","-0.5613556","0.25112915","9.66745","none","0"
"90541854545073","3","-0.56614685","0.2559204","9.708145","none","0"
"90541874503569","3","-0.56614685","0.23677063","9.721313","none","0"
"90541894492582","3","-0.5529785","0.2571106","9.663849","none","0"
"90541914481596","3","-0.56973267","0.26190186","9.702164","none","0"
"90541934470610","3","-0.58529663","0.2642975","9.7057495","none","0"
"90541954429106","3","-0.5637512","0.25473022","9.683014","none","0"
"90541974418119","3","-0.5613556","0.2523346","9.711731","none","0"
"90541994376616","3","-0.54818726","0.23197937","9.6866","none","0"
"90542014365629","3","-0.55537415","0.26550293","9.696182","none","0"
"90542034354643","3","-0.5709381","0.27027893","9.712936","none","0"
"90542054313139","3","-0.56256104","0.24754333","9.718918","none","0"
"90542074271635","3","-0.5721283","0.234375","9.656677","none","0"
"90542094291166","3","-0.5637512","0.34091187","9.752441","none","0"
"90542114280180","3","-0.57572937","0.26908875","9.802719","none","0"
"90542134269194","3","-0.56733704","0.18528748","9.627945","none","0"
"90542154227690","3","-0.53862","0.13621521","9.420837","none","0"
"90542174216703","3","-0.5469971","0.18649292","9.714127","none","0"
"90542194205717","3","-0.5529785","0.49414062","9.873352","none","0"
"90542214194731","3","-0.61283875","0.234375","9.957138","none","0"
"90542234153227","3","-0.48234558","0.1876831","9.226913","none","0"
"90542254142241","3","-0.5505829","0.24873352","9.633926","none","0"
"90542274100737","3","-0.64515686","0.17451477","10.233673","none","0"
"90542294089750","3","-0.5206604","0.4007721","9.460342","none","0"
"90542314078764","3","-0.52664185","0.29782104","9.57048","none","0"
"90542334067778","3","-0.55537415","0.08833313","9.757233","none","0"
"90542354056791","3","-0.5936737","0.23077393","9.633926","none","0"
"90542374045805","3","-0.57572937","0.30619812","9.855392","none","0"
"90542394004301","3","-0.5122833","0.31936646","9.535767","none","0"
"90542413993315","3","-0.5613556","0.24873352","9.641113","none","0"
"90542433982328","3","-0.57691956","0.16732788","9.862579","none","0"
"90542453971342","3","-0.5422058","0.22120667","9.633926","none","0"
"90542473929838","3","-0.5709381","0.313385","9.6662445","none","0"
"90542493918852","3","-0.56256104","0.2930298","9.724899","none","0"
"90542513877348","3","-0.56256104","0.23796082","9.680618","none","0"
"90542533866362","3","-0.57691956","0.20803833","9.735687","none","0"
"90542553855375","3","-0.56495667","0.23077393","9.691391","none","0"
"90542573844389","3","-0.5541687","0.28344727","9.653076","none","0"
"90542593833403","3","-0.56614685","0.2571106","9.718918","none","0"
"90542613791899","3","-0.5745239","0.23556519","9.7057495","none","0"
"90542633780912","3","-0.5601654","0.23077393","9.679413","none","0"
"90542653769926","3","-0.5529785","0.2631073","9.715332","none","0"
"90542673728422","3","-0.5577698","0.2858429","9.697372","none","0"
"90542693717436","3","-0.5601654","0.25950623","9.66864","none","0"
"90542713706450","3","-0.57691956","0.234375","9.752441","none","0"
"90542733695463","3","-0.55656433","0.21760559","9.700958","none","0"
"90542753653959","3","-0.54818726","0.23197937","9.662659","none","0"
"90542773642973","3","-0.5529785","0.29542542","9.635117","sit down","0"
"90542793601469","3","-0.58410645","0.22239685","9.756027","sit down","0"
"90542813559965","3","-0.56495667","0.27627563","9.660263","sit down","0"
"90542833548979","3","-0.5805054","0.23677063","9.730896","sit down","0"
"90542853568510","3","-0.5601654","0.2164154","9.66745","sit down","0"
"90542873557524","3","-0.5505829","0.30140686","9.637512","sit down","0"
"90542893546537","3","-0.57691956","0.23916626","9.82785","sit down","0"
"90542913505034","3","-0.5529785","0.24275208","9.631531","sit down","0"
"90542933494047","3","-0.56733704","0.2642975","9.683014","sit down","0"
"90542953483061","3","-0.5541687","0.25352478","9.706955","sit down","0"
"90542973472075","3","-0.56614685","0.26669312","9.660263","sit down","0"
"90542993430571","3","-0.55537415","0.2451477","9.74765","sit down","0"
"90543013419584","3","-0.5505829","0.22958374","9.677017","sit down","0"
"90543033378080","3","-0.5709381","0.25831604","9.662659","sit down","0"
"90543053367094","3","-0.5541687","0.26669312","9.734482","sit down","0"
"90543073356108","3","-0.5613556","0.26550293","9.674622","sit down","0"
"90543093345121","3","-0.5709381","0.2571106","9.704559","sit down","0"
"90543113303618","3","-0.56256104","0.24275208","9.710541","sit down","0"
"90543133292631","3","-0.5685425","0.2571106","9.671036","sit down","0"
"90543153281645","3","-0.55656433","0.25950623","9.708145","sit down","0"
"90543173270659","3","-0.57572937","0.27027893","9.693787","sit down","0"
"90543193259672","3","-0.56614685","0.2571106","9.66745","sit down","0"
"90543213248686","3","-0.5637512","0.23316956","9.727295","sit down","0"
"90543233207182","3","-0.5685425","0.26550293","9.66864","sit down","0"
"90543253196196","3","-0.5721283","0.25950623","9.7057495","sit down","0"
"90543273154692","3","-0.56973267","0.25831604","9.678223","sit down","0"
"90543293143705","3","-0.56733704","0.23677063","9.6866","sit down","0"
"90543313102201","3","-0.5469971","0.2523346","9.7057495","sit down","0"
"90543333091215","3","-0.56733704","0.3038025","9.6866","sit down","0"
"90543353080229","3","-0.57691956","0.24633789","9.735687","sit down","0"
"90543373069243","3","-0.56495667","0.24633789","9.650681","sit down","0"
"90543393027739","3","-0.5685425","0.25352478","9.671036","sit down","0"
"90543413016752","3","-0.5613556","0.26669312","9.721313","sit down","0"
"90543433005766","3","-0.5637512","0.2858429","9.641113","sit down","0"
"90543452994780","3","-0.5793152","0.22958374","9.748856","sit down","0"
"90543472983793","3","-0.5637512","0.27148438","9.654282","sit down","0"
"90543492972807","3","-0.57572937","0.23197937","9.709351","sit down","0"
"90543512931303","3","-0.5601654","0.27267456","9.709351","sit down","0"
"90543532920317","3","-0.5805054","0.25950623","9.693787","sit down","0"
"90543552878813","3","-0.56495667","0.22839355","9.744064","sit down","0"
"90543572867826","3","-0.5314331","0.27148438","9.596817","sit down","0"
"90543592856840","3","-0.5721283","0.24754333","9.741669","sit down","0"
"90543612845854","3","-0.53622437","0.27027893","9.698563","sit down","0"
"90543632804350","3","-0.57691956","0.24156189","9.7057495","sit down","0"
"90543652793364","3","-0.5936737","0.25112915","9.643509","sit down","0"
"90543672751860","3","-0.55656433","0.2678833","9.681808","sit down","0"
"90543692710356","3","-0.582901","0.28105164","9.6064","sit down","0"
"90543712729887","3","-0.582901","0.25831604","9.564499","sit down","0"
"90543732718901","3","-0.5865021","0.2678833","9.696182","sit down","0"
"90543752707914","3","-0.6152344","0.2846527","9.636322","sit down","0"
"90543772696928","3","-0.6260071","0.28704834","9.541748","sit down","0"
"90543792655424","3","-0.6080475","0.2846527","9.450775","sit down","0"
"90543812644438","3","-0.6726837","0.24156189","9.4483795","sit down","0"
"90543832633451","3","-0.6403656","0.34449768","9.624344","sit down","0"
"90543852622465","3","-0.46559143","0.34091187","9.518997","sit down","0"
"90543872580961","3","-0.50749207","0.28823853","9.6064","sit down","0"
"90543892539457","3","0.07191467","0.23796082","9.7608185","sit down","0"
"90543912528471","3","0.6884155","0.22239685","9.554916","sit down","0"
"90543932517485","3","1.3480225","0.14219666","8.971924","sit down","0"
"90543952506498","3","-0.83070374","0.74194336","8.050156","sit down","0"
"90543972495512","3","-0.89894104","0.5168915","8.390137","sit down","0"
"90543992454008","3","-0.43327332","-0.41325378","9.437607","sit down","0"
"90544012443022","3","-2.2061768","-0.11279297","10.775955","sit down","0"
"90544032432035","3","-3.6355133","0.33851624","11.580414","sit down","0"
"90544052421049","3","-2.75206","-0.32707214","10.957916","sit down","0"
"90544072379545","3","-2.0337982","-0.5341644","10.734055","sit down","0"
"90544092368559","3","-2.0517426","-0.034973145","11.157837","sit down","0"
"90544112357573","3","-1.7440948","-0.007446289","10.252823","sit down","0"
"90544132346586","3","-1.3921509","-0.13673401","9.345428","sit down","0"
"90544152305082","3","-1.2065887","-0.044555664","9.611176","sit down","0"
"90544172294096","3","-0.9803467","0.14698792","9.604004","sit down","0"
"90544192252592","3","-0.82232666","0.234375","9.219727","sit down","0"
"90544212241606","3","-0.73973083","0.18289185","9.208954","sit down","0"
"90544232230619","3","-0.7265625","0.20443726","9.422043","sit down","0"
"90544252219633","3","-0.65592957","0.26550293","9.438797","sit down","0"
"90544272178129","3","-0.582901","0.2451477","9.347824","sit down","0"
"90544292167143","3","-0.7301483","0.30500793","9.319092","sit down","0"
"90544312156157","3","-0.9037323","0.24754333","9.440002","sit down","0"
"90544332145170","3","-0.8426819","0.13861084","9.538162","sit down","0"
"90544352134184","3","-0.7121887","0.19247437","9.395706","sit down","0"
"90544372123198","3","-0.7576904","0.24633789","9.443588","sit down","0"
"90544392081694","3","-0.86302185","0.15177917","9.557312","sit down","0"
"90544412070707","3","-0.9516144","0.13261414","9.6267395","sit down","0"
"90544432029203","3","-0.9827423","0.10987854","9.643509","sit down","0"
"90544452018217","3","-1.0378113","0.123046875","9.637512","sit down","0"
"90544472007231","3","-1.1012573","0.15415955","9.709351","sit down","0"
"90544491996244","3","-1.2233582","0.11705017","9.714127","sit down","0"
"90544511954741","3","-1.2796173","0.07156372","9.771591","sit down","0"
"90544531943754","3","-1.2868042","0.04043579","9.836243","sit down","0"
"90544551902250","3","-1.2520905","0.084732056","9.878128","sit down","0"
"90544571891264","3","-1.2676544","0.087127686","9.947571","sit down","0"
"90544591880278","3","-1.1970215","0.04283142","9.894897","sit down","0"
"90544611869291","3","-1.1359711","0.07156372","9.815887","sit down","0"
"90544631858305","3","-1.0988617","0.10029602","9.724899","sit down","0"
"90544651847319","3","-1.029419","0.12782288","9.620758","sit down","0"
"90544671805815","3","-1.0976562","0.16853333","9.692581","sit down","0"
"90544691794828","3","-1.048584","0.15415955","9.624344","sit down","0"
"90544711753325","3","-0.98991394","0.13500977","9.562103","sit down","0"
"90544731742338","3","-1.0162506","0.1589508","9.594421","sit down","0"
"90544751731352","3","-1.0605469","0.1876831","9.660263","sit down","0"
"90544771720366","3","-1.0042877","0.17572021","9.620758","sit down","0"
"90544791678862","3","-0.9216919","0.13142395","9.485489","sit down","0"
"90544811667875","3","-0.97914124","0.1589508","9.595612","sit down","0"
"90544831626371","3","-0.9803467","0.15776062","9.6866","sit down","0"
"90544851615385","3","-0.9288635","0.16134644","9.559708","sit down","0"
"90544871604399","3","-0.9552002","0.16732788","9.564499","sit down","0"
"90544891593412","3","-0.9324646","0.1481781","9.625549","sit down","0"
"90544911582426","3","-0.9767456","0.13621521","9.662659","sit down","0"
"90544931571440","3","-1.0318146","0.13861084","9.657867","sit down","0"
"90544951529936","3","-1.0545654","0.1374054","9.671036","sit down","0"
"90544971518950","3","-1.05336","0.1302185","9.697372","sit down","0"
"90544991518131","3","-1.064148","0.12902832","9.678223","sit down","0"
"90545011507145","3","-1.0749207","0.1254425","9.678223","sit down","0"
"90545031465641","3","-1.103653","0.12663269","9.706955","sit down","0"
"90545051454655","3","-1.1060333","0.15536499","9.7285","sit down","0"
"90545071413151","3","-1.1132202","0.11705017","9.703354","sit down","0"
"90545091402164","3","-1.0916748","0.0859375","9.659073","sit down","0"
"90545111391178","3","-1.072525","0.09790039","9.709351","sit down","0"
"90545131380192","3","-1.0952606","0.12663269","9.724899","sit down","0"
"90545151369205","3","-1.0473785","0.13142395","9.643509","sit down","0"
"90545171358219","3","-1.0042877","0.12423706","9.647095","sit down","0"
"90545191316715","3","-1.0306244","0.10269165","9.64949","sit down","0"
"90545211305729","3","-1.0378113","0.13861084","9.643509","sit down","0"
"90545231294743","3","-1.0138702","0.19126892","9.651886","sit down","0"
"90545251283756","3","-1.0521698","0.13142395","9.656677","sit down","0"
"90545271242252","3","-1.0449829","0.14099121","9.642303","sit down","0"
"90545291231266","3","-1.056961","0.1254425","9.672226","sit down","0"
"90545311189762","3","-1.072525","0.15177917","9.635117","sit down","0"
"90545331178776","3","-1.068924","0.15057373","9.673431","sit down","0"
"90545351137272","3","-1.0809021","0.108673096","9.727295","sit down","0"
"90545371126286","3","-1.0677338","0.13500977","9.604004","sit down","0"
"90545391115299","3","-1.0390015","0.1254425","9.674622","sit down","0"
"90545411104313","3","-1.0114746","0.1589508","9.614777","sit down","0"
"90545431093327","3","-1.0150604","0.14099121","9.641113","sit down","0"
"90545451082340","3","-1.024643","0.14099121","9.6267395","sit down","0"
"90545471040836","3","-1.1192017","0.113464355","9.627945","sit down","0"
"90545491029850","3","-1.068924","0.15415955","9.724899","sit down","0"
"90545511018864","3","-0.8103485","0.17930603","9.532166","sit down","0"
"90545531007877","3","-1.0306244","0.08354187","9.785965","sit down","0"
"90545550966373","3","-1.1539307","0.05960083","9.779968","sit down","0"
"90545570955387","3","-1.1299744","0.11705017","9.674622","sit down","0"
"90545590913883","3","-1.1144257","0.17930603","9.66745","sit down","0"
"90545610902897","3","-1.0366058","0.16255188","9.578857","sit down","0"
"90545630891911","3","-1.064148","0.13861084","9.655472","sit down","0"
"90545650880924","3","-1.0916748","0.096710205","9.643509","sit down","0"
"90545670839420","3","-1.1048431","0.12184143","9.660263","sit down","0"
"90545690828434","3","-1.0354156","0.1481781","9.663849","sit down","0"
"90545710786930","3","-1.0234375","0.13500977","9.66864","sit down","0"
"90545730775944","3","-1.0366058","0.12423706","9.66745","sit down","0"
"90545750764957","3","-1.029419","0.13261414","9.653076","sit down","0"
"90545770753971","3","-1.0222473","0.15177917","9.638718","sit down","0"
"90545790742985","3","-1.03302","0.16374207","9.654282","sit down","0"
"90545810731998","3","-1.0545654","0.12782288","9.663849","sit down","0"
"90545830690494","3","-1.0617523","0.118255615","9.64949","sit down","0"
"90545850679508","3","-1.0713196","0.1302185","9.677017","sit down","0"
"90545870668522","3","-1.0713196","0.12184143","9.674622","sit down","0"
"90545890657536","3","-1.0796967","0.14099121","9.669846","sit down","0"
"90545910616032","3","-1.0773163","0.123046875","9.680618","sit down","0"
"90545930605045","3","-1.068924","0.12423706","9.661453","sit down","0"
"90545950563541","3","-1.0653381","0.123046875","9.672226","sit down","0"
"90545970552555","3","-1.0617523","0.1302185","9.680618","sit down","0"
"90545990511051","3","-1.0425873","0.14219666","9.656677","sit down","0"
"90546010530582","3","-1.048584","0.1374054","9.671036","sit down","0"
"90546030519596","3","-1.0521698","0.12423706","9.644699","sit down","0"
"90546050508610","3","-1.0401917","0.13381958","9.655472","sit down","0"
"90546070497623","3","-1.048584","0.14219666","9.653076","sit down","0"
"90546090486637","3","-1.0557556","0.13621521","9.650681","sit down","0"
"90546110445133","3","-1.0593567","0.1302185","9.655472","sit down","0"
"90546130434147","3","-1.064148","0.14099121","9.657867","sit down","0"
"90546150423161","3","-1.056961","0.12663269","9.661453","sit down","0"
"90546170412174","3","-1.0605469","0.12902832","9.654282","sit down","0"
"90546190370670","3","-1.068924","0.13621521","9.662659","sit down","0"
"90546210359684","3","-1.0593567","0.120651245","9.6662445","sit down","0"
"90546230318180","3","-1.0605469","0.12782288","9.677017","sit down","0"
"90546250307194","3","-1.0701294","0.12184143","9.6662445","sit down","0"
"90546270296207","3","-1.0521698","0.123046875","9.6662445","sit down","0"
"90546290285221","3","-1.05336","0.13381958","9.665054","sit down","0"
"90546310274235","3","-1.0617523","0.1302185","9.665054","sit down","0"
"90546330263248","3","-1.0437927","0.12902832","9.6662445","sit down","0"
"90546350221744","3","-1.0449829","0.13142395","9.657867","sit down","0"
"90546370210758","3","-1.0545654","0.12663269","9.653076","sit down","0"
"90546390199772","3","-1.056961","0.11227417","9.675827","sit down","0"
"90546410188786","3","-1.0713196","0.120651245","9.654282","sit down","0"
"90546430147282","3","-1.0545654","0.12663269","9.665054","sit down","0"
"90546450136295","3","-1.0557556","0.1194458","9.660263","sit down","0"
"90546470125309","3","-1.0557556","0.1302185","9.653076","sit down","0"
"90546490083805","3","-1.0593567","0.12184143","9.66745","sit down","0"
"90546510072819","3","-1.0629425","0.1254425","9.660263","sit down","0"
"90546530061832","3","-1.0497742","0.13142395","9.659073","sit down","0"
"90546550020328","3","-1.0593567","0.12663269","9.663849","sit down","0"
"90546570009342","3","-1.048584","0.13381958","9.66864","sit down","0"
"90546589998356","3","-1.0593567","0.12423706","9.64949","sit down","0"
"90546609987369","3","-1.0605469","0.13621521","9.671036","sit down","0"
"90546629945866","3","-1.0581512","0.14219666","9.674622","sit down","0"
"90546649934879","3","-1.0425873","0.1254425","9.645905","sit down","0"
"90546669923893","3","-1.0593567","0.1374054","9.66864","sit down","0"
"90546689912907","3","-1.0521698","0.12423706","9.669846","sit down","0"
"90546709871403","3","-1.0521698","0.13381958","9.66745","sit down","0"
"90546729860416","3","-1.056961","0.12184143","9.665054","sit down","0"
"90546749818912","3","-1.0593567","0.12902832","9.669846","sit down","0"
"90546769807926","3","-1.068924","0.13381958","9.660263","lay down","0"
"90546789796940","3","-1.0497742","0.120651245","9.662659","lay down","0"
"90546809755436","3","-1.0461884","0.1194458","9.659073","lay down","0"
"90546829744450","3","-1.0665283","0.1374054","9.660263","lay down","0"
"90546849733463","3","-1.048584","0.12902832","9.657867","lay down","0"
"90546869722477","3","-1.0413971","0.1254425","9.659073","lay down","0"
"90546889711491","3","-1.0701294","0.12782288","9.672226","lay down","0"
"90546909700504","3","-1.056961","0.13261414","9.662659","lay down","0"
"90546929689518","3","-1.0437927","0.13861084","9.66864","lay down","0"
"90546949648014","3","-1.0557556","0.1254425","9.665054","lay down","0"
"90546969637028","3","-1.0605469","0.13381958","9.656677","lay down","0"
"90546989595524","3","-1.0593567","0.1302185","9.659073","lay down","0"
"90547009584537","3","-1.0593567","0.12663269","9.653076","lay down","0"
"90547029573551","3","-1.072525","0.12663269","9.659073","lay down","0"
"90547049562565","3","-1.0629425","0.1254425","9.661453","lay down","0"
"90547069521061","3","-1.0593567","0.13980103","9.661453","lay down","0"
"90547089510075","3","-1.0509796","0.1194458","9.6662445","lay down","0"
"90547109468571","3","-1.0401917","0.13500977","9.643509","lay down","0"
"90547129457584","3","-1.0461884","0.10987854","9.662659","lay down","0"
"90547149446598","3","-1.0593567","0.099105835","9.679413","lay down","0"
"90547169435612","3","-1.0473785","0.1254425","9.657867","lay down","0"
"90547189424625","3","-1.0677338","0.11465454","9.683014","lay down","0"
"90547209413639","3","-1.0820923","0.123046875","9.684204","lay down","0"
"90547229372135","3","-1.0545654","0.120651245","9.673431","lay down","0"
"90547249361149","3","-1.0605469","0.111068726","9.647095","lay down","0"
"90547269319645","3","-1.0593567","0.13381958","9.654282","lay down","0"
"90547289308659","3","-1.0401917","0.15536499","9.662659","lay down","0"
"90547309297672","3","-1.05336","0.14219666","9.654282","lay down","0"
"90547329286686","3","-1.0509796","0.10987854","9.655472","lay down","0"
"90547349245182","3","-1.0473785","0.12423706","9.683014","lay down","0"
"90547369234196","3","-1.048584","0.15296936","9.660263","lay down","0"
"90547389192692","3","-1.0521698","0.14219666","9.64949","lay down","0"
"90547409181705","3","-1.0354156","0.14698792","9.623154","lay down","0"
"90547429170719","3","-1.03302","0.16972351","9.609985","lay down","0"
"90547449159733","3","-1.0162506","0.17572021","9.5872345","lay down","0"
"90547469148746","3","-1.0198517","0.17451477","9.601608","lay down","0"
"90547489137760","3","-1.0030823","0.16494751","9.586044","lay down","0"
"90547509096256","3","-1.048584","0.15177917","9.651886","lay down","0"
"90547529054752","3","-1.0773163","0.16853333","9.684204","lay down","0"
"90547549043766","3","-1.1311798","0.19606018","9.665054","lay down","0"
"90547569032780","3","-1.1144257","0.18888855","9.692581","lay down","0"
"90547588991276","3","-1.0605469","0.15057373","9.6866","lay down","0"
"90547608980289","3","-1.0988617","0.113464355","9.660263","lay down","0"
"90547628969303","3","-1.1862488","0.12663269","9.721313","lay down","0"
"90547648958317","3","-1.1407623","0.16015625","9.722519","lay down","0"
"90547668947330","3","-1.1419525","0.0859375","9.583649","lay down","0"
"90547688936344","3","-1.2568817","-0.05053711","9.769196","lay down","0"
"90547708894840","3","-1.2209625","-0.001449585","9.934402","lay down","0"
"90547728883854","3","-0.993515","0.05001831","9.675827","lay down","0"
"90547748872868","3","-0.9647827","0.18289185","9.615967","lay down","0"
"90547768861881","3","-0.9983063","0.13500977","9.831451","lay down","0"
"90547788850895","3","-0.98513794","0.017700195","9.690186","lay down","0"
"90547808839909","3","-1.0198517","-0.16905212","9.563293","lay down","0"
"90547828798405","3","-1.2317352","-0.08406067","9.860184","lay down","0"
"90547848787418","3","-1.2365265","0.118255615","9.736877","lay down","0"
"90547868745914","3","-1.0701294","0.14459229","9.473511","lay down","0"
"90547888734928","3","-1.0306244","-0.0062408447","9.620758","lay down","0"
"90547908693424","3","-1.0342102","0.067977905","9.814682","lay down","0"
"90547928682438","3","-0.85105896","0.1302185","9.511826","lay down","0"
"90547948671452","3","-0.7636719","0.05480957","9.280777","lay down","0"
"90547968660465","3","-0.7780304","0.13142395","9.545334","lay down","0"
"90547988618961","3","-0.83309937","0.15296936","9.514221","lay down","0"
"90548008607975","3","-0.94921875","0.08833313","9.639908","lay down","0"
"90548028596989","3","-0.93006897","0.09790039","9.656677","lay down","0"
"90548048586002","3","-0.914505","0.14698792","9.447174","lay down","0"
"90548068575016","3","-0.9863281","0.19126892","9.699768","lay down","0"
"90548088564030","3","-0.9911194","0.21401978","9.732086","lay down","0"
"90548108522526","3","-1.0018921","0.18170166","9.515411","lay down","0"
"90548128511539","3","-1.1862488","0.008117676","9.791946","lay down","0"
"90548148470036","3","-1.1742706","-0.02180481","9.988266","lay down","0"
"90548168459049","3","-0.8654175","-0.012237549","9.58844","lay down","0"
"90548188417545","3","-0.9803467","-0.042160034","9.653076","lay down","0"
"90548208406559","3","-1.2676544","-0.05532837","10.031357","lay down","0"
"90548228395573","3","-1.1335754","-0.111587524","9.9583435","lay down","0"
"90548248384586","3","-0.93725586","-0.14511108","9.6267395","lay down","0"
"90548268343082","3","-0.89175415","-0.18940735","9.539352","lay down","0"
"90548288332096","3","-1.0126648","-0.15707397","9.58963","lay down","0"
"90548308321110","3","-1.0042877","-0.14271545","9.623154","lay down","0"
"90548328310123","3","-0.94921875","-0.123565674","9.730896","lay down","0"
"90548348299137","3","-0.86302185","0.027267456","9.602798","lay down","0"
"90548368288151","3","-0.80796814","0.04043579","9.432816","lay down","0"
"90548388246647","3","-0.85105896","0.048828125","9.363388","lay down","0"
"90548408235661","3","-0.9037323","0.14578247","9.322678","lay down","0"
"90548428194157","3","-0.9061279","0.05960083","9.37056","lay down","0"
"90548448183170","3","-0.89894104","-0.061309814","9.375351","lay down","0"
"90548468172184","3","-0.75289917","0.12184143","9.186203","lay down","0"
"90548488161198","3","-0.73973083","0.06916809","8.924042","lay down","0"
"90548508119694","3","-1.0437927","-0.001449585","9.256836","lay down","0"
"90548528108707","3","-1.2676544","-0.14750671","9.730896","lay down","0"
"90548548067203","3","-1.1802673","-0.40368652","9.495056","lay down","0"
"90548568056217","3","-0.8857727","-0.37374878","8.843842","lay down","0"
"90548588045231","3","-0.09927368","-0.5628967","5.4716034","lay down","0"
"90548608034244","3","-1.5154419","-1.433197","10.16185","lay down","0"
"90548628023258","3","-2.4779205","-2.4842377","11.80307","lay down","0"
"90548647981754","3","-1.7823944","-1.3553772","11.682159","lay down","0"
"90548667940250","3","-4.3585663","-0.8358307","12.854126","lay down","0"
"90548687929264","3","-5.4467316","0.3720398","12.723648","lay down","0"
"90548707918278","3","-3.3087006","-0.09362793","10.456329","lay down","0"
"90548727907291","3","-1.0425873","-0.943573","8.485901","lay down","0"
"90548747896305","3","-0.80078125","-0.8238678","8.070511","lay down","0"
"90548767885319","3","-0.9109192","-0.41325378","8.269226","lay down","0"
"90548787843815","3","-0.98991394","0.3828125","8.865387","lay down","0"
"90548807832828","3","-1.5214386","0.7108154","8.963547","lay down","0"
"90548827791325","3","-2.250473","0.21881104","9.975098","lay down","0"
"90548847780338","3","-1.5681152","-0.15827942","9.963135","lay down","0"
"90548867769352","3","-1.024643","-0.12475586","9.041367","lay down","0"
"90548887758366","3","-1.3406677","-0.24446106","9.252045","lay down","0"
"90548907747379","3","-1.2089844","-0.29354858","9.340637","lay down","0"
"90548927736393","3","-1.0940704","-0.20018005","9.129944","lay down","0"
"90548947694889","3","-1.2065887","-0.22891235","9.305923","lay down","0"
"90548967683903","3","-1.2161713","-0.35101318","9.436401","lay down","0"
"90548987672916","3","-1.2425079","-0.18701172","9.5429535","lay down","0"
"90549007661930","3","-1.3658142","-0.04814148","9.80751","lay down","0"
"90549027620426","3","-1.5322113","-0.08166504","9.988266","lay down","0"
"90549047609440","3","-1.5681152","-0.16307068","9.9583435","lay down","0"
"90549067567936","3","-1.408905","-0.2169342","9.811096","lay down","0"
"90549087556950","3","-1.3334961","-0.15707397","9.754837","lay down","0"
"90549107545963","3","-1.2808228","-0.07447815","9.600403","lay down","0"
"90549127534977","3","-1.195816","-0.03378296","9.4088745","lay down","0"
"90549147523991","3","-1.1491394","-0.03857422","9.441193","lay down","0"
"90549167513004","3","-1.13237","-0.06011963","9.538162","lay down","0"
"90549187471500","3","-1.195816","-0.09602356","9.609985","lay down","0"
"90549207460514","3","-1.250885","-0.121170044","9.661453","lay down","0"
"90549227449528","3","-1.3023682","-0.16186523","9.726105","lay down","0"
"90549247438541","3","-1.314331","-0.21453857","9.7452545","lay down","0"
"90549267397037","3","-1.2999725","-0.2348938","9.708145","lay down","0"
"90549287386051","3","-1.2844086","-0.18341064","9.645905","lay down","0"
"90549307344547","3","-1.2496948","-0.14990234","9.600403","lay down","0"
"90549327333561","3","-1.2449036","-0.1379242","9.565689","lay down","0"
"90549347322575","3","-1.235321","-0.13673401","9.578857","lay down","0"
"90549367311588","3","-1.2676544","-0.14390564","9.578857","lay down","0"
"90549387270084","3","-1.2808228","-0.12715149","9.594421","lay down","0"
"90549407259098","3","-1.2915955","-0.092437744","9.630341","lay down","0"
"90549427217594","3","-1.3083496","-0.080459595","9.643509","lay down","0"
"90549447206608","3","-1.3107452","-0.094833374","9.648285","lay down","0"
"90549467195621","3","-1.2891998","-0.09362793","9.656677","lay down","0"
"90549487184635","3","-1.2712402","-0.10081482","9.627945","lay down","0"
"90549507173649","3","-1.274826","-0.1379242","9.641113","lay down","0"
"90549527162662","3","-1.266449","-0.1666565","9.629135","lay down","0"
"90549547121159","3","-1.2496948","-0.16905212","9.638718","lay down","0"
"90549567110172","3","-1.2520905","-0.14511108","9.619568","lay down","0"
"90549587068668","3","-1.2520905","-0.14750671","9.617172","lay down","0"
"90549607057682","3","-1.2544861","-0.14630127","9.60759","lay down","0"
"90549627046696","3","-1.2532806","-0.14152527","9.627945","lay down","0"
"90549647035709","3","-1.27005","-0.1259613","9.629135","lay down","0"
"90549666994205","3","-1.2652588","-0.12236023","9.6267395","lay down","0"
"90549686983219","3","-1.2688446","-0.11039734","9.620758","lay down","0"
"90549706972233","3","-1.2760315","-0.109191895","9.632736","lay down","0"
"90549726961246","3","-1.2808228","-0.11756897","9.618362","lay down","0"
"90549746950260","3","-1.2868042","-0.106796265","9.6267395","lay down","0"
"90549766939274","3","-1.29039","-0.111587524","9.642303","lay down","0"
"90549786897770","3","-1.2879944","-0.121170044","9.633926","lay down","0"
"90549806886784","3","-1.2879944","-0.14031982","9.630341","lay down","0"
"90549826845280","3","-1.2652588","-0.1307373","9.599213","lay down","0"
"90549846834293","3","-1.2496948","-0.12954712","9.593231","lay down","0"
"90549866823307","3","-1.2604675","-0.1307373","9.617172","lay down","0"
"90549886812321","3","-1.2568817","-0.14152527","9.637512","lay down","0"
"90549906770817","3","-1.2484894","-0.15229797","9.609985","lay down","0"
"90549926759830","3","-1.2568817","-0.12475586","9.613571","lay down","0"
"90549946718327","3","-1.2688446","-0.11756897","9.641113","lay down","0"
"90549966707340","3","-1.2724304","-0.12835693","9.642303","lay down","0"
"90549986665836","3","-1.2616577","-0.13313293","9.648285","lay down","0"
"90550006685368","3","-1.2868042","-0.1379242","9.656677","lay down","0"
"90550026674381","3","-1.2796173","-0.1307373","9.647095","lay down","0"
"90550046663395","3","-1.266449","-0.12835693","9.620758","lay down","0"
"90550066621891","3","-1.2640533","-0.1151886","9.620758","lay down","0"
"90550086610905","3","-1.2676544","-0.1379242","9.620758","lay down","0"
"90550106569401","3","-1.274826","-0.1307373","9.620758","lay down","0"
"90550126558414","3","-1.2688446","-0.12475586","9.6267395","lay down","0"
"90550146547428","3","-1.266449","-0.12835693","9.620758","lay down","0"
"90550166536442","3","-1.2712402","-0.13433838","9.624344","lay down","0"
"90550186494938","3","-1.2736359","-0.13433838","9.619568","lay down","0"
"90550206483952","3","-1.2556763","-0.118774414","9.629135","lay down","0"
"90550226442448","3","-1.2544861","-0.1199646","9.631531","lay down","0"
"90550246431461","3","-1.2724304","-0.13912964","9.647095","lay down","0"
"90550266420475","3","-1.2724304","-0.14031982","9.650681","lay down","0"
"90550286409489","3","-1.2796173","-0.1199646","9.639908","lay down","0"
"90550306398502","3","-1.2796173","-0.12236023","9.623154","lay down","0"
"90550326387516","3","-1.2568817","-0.12715149","9.624344","lay down","0"
"90550346346012","3","-1.2568817","-0.1379242","9.637512","lay down","0"
"90550366335026","3","-1.2688446","-0.11756897","9.635117","lay down","0"
"90550386293522","3","-1.274826","-0.12954712","9.619568","lay down","0"
"90550406282536","3","-1.266449","-0.1307373","9.630341","lay down","0"
"90550426271549","3","-1.2760315","-0.1307373","9.615967","lay down","0"
"90550446260563","3","-1.2772217","-0.13912964","9.639908","lay down","0"
"90550466219059","3","-1.2712402","-0.12835693","9.633926","lay down","0"
"90550486208073","3","-1.274826","-0.13552856","9.630341","lay down","0"
"90550506197086","3","-1.266449","-0.13673401","9.64949","lay down","0"
"90550526186100","3","-1.266449","-0.121170044","9.637512","lay down","0"
"90550546144596","3","-1.2616577","-0.121170044","9.624344","lay down","0"
"90550566133610","3","-1.2628632","-0.1307373","9.605194","lay down","0"
"90550586122623","3","-1.274826","-0.12954712","9.633926","lay down","0"
"90550606111637","3","-1.2712402","-0.13673401","9.638718","lay down","0"
"90550626070133","3","-1.27005","-0.13194275","9.638718","lay down","0"
"90550646059147","3","-1.2616577","-0.12954712","9.624344","lay down","0"
"90550666048161","3","-1.2616577","-0.1259613","9.637512","lay down","0"
"90550686037174","3","-1.2640533","-0.123565674","9.6267395","lay down","0"
"90550705995670","3","-1.2592621","-0.13313293","9.633926","lay down","0"
"90550725984684","3","-1.2604675","-0.14031982","9.643509","lay down","0"
"90550745943180","3","-1.2604675","-0.12954712","9.627945","lay down","0"
"90550765932194","3","-1.2772217","-0.13313293","9.624344","sit up","0"
"90550785921207","3","-1.2712402","-0.1307373","9.636322","sit up","0"
"90550805910221","3","-1.2592621","-0.12715149","9.635117","sit up","0"
"90550825868717","3","-1.2724304","-0.12715149","9.638718","sit up","0"
"90550845857731","3","-1.2736359","-0.1259613","9.624344","sit up","0"
"90550865846744","3","-1.2712402","-0.13673401","9.635117","sit up","0"
"90550885835758","3","-1.2832031","-0.13912964","9.636322","sit up","0"
"90550905824772","3","-1.2688446","-0.14031982","9.615967","sit up","0"
"90550925813786","3","-1.2808228","-0.12715149","9.639908","sit up","0"
"90550945772282","3","-1.2868042","-0.1307373","9.636322","sit up","0"
"90550965761295","3","-1.2844086","-0.14031982","9.627945","sit up","0"
"90550985719791","3","-1.27005","-0.123565674","9.624344","sit up","0"
"90551005708805","3","-1.2820129","-0.1307373","9.632736","sit up","0"
"90551025667301","3","-1.2879944","-0.12475586","9.637512","sit up","0"
"90551045656315","3","-1.2724304","-0.13433838","9.642303","sit up","0"
"90551065645328","3","-1.2808228","-0.13313293","9.629135","sit up","0"
"90551085634342","3","-1.27005","-0.1379242","9.632736","sit up","0"
"90551105592838","3","-1.2520905","-0.14031982","9.6267395","sit up","0"
"90551125581852","3","-1.2389221","-0.1199646","9.57048","sit up","0"
"90551145540348","3","-1.2496948","-0.1151886","9.572876","sit up","0"
"90551165559879","3","-1.2939911","-0.11279297","9.629135","sit up","0"
"90551185548893","3","-1.2999725","-0.070892334","9.600403","sit up","0"
"90551205537907","3","-1.2604675","-0.10321045","9.51062","sit up","0"
"90551225496403","3","-1.321518","-0.21453857","9.7608185","sit up","0"
"90551245485416","3","-1.3921509","-0.18580627","9.819473","sit up","0"
"90551265443912","3","-1.3131409","-0.13912964","9.478302","sit up","0"
"90551285432926","3","-1.2604675","-0.20735168","9.551331","sit up","0"
"90551305421940","3","-1.3490448","-0.20735168","9.785965","sit up","0"
"90551325410953","3","-1.3322906","-0.1882019","9.76561","sit up","0"
"90551345369450","3","-1.2125854","-0.18222046","9.677017","sit up","0"
"90551365358463","3","-1.2449036","-0.10321045","9.629135","sit up","0"
"90551385316959","3","-1.329895","-0.12954712","9.697372","sit up","0"
"90551405305973","3","-1.3071594","-0.17263794","9.710541","sit up","0"
"90551425294987","3","-1.1946259","-0.11279297","9.574066","sit up","0"
"90551445284000","3","-1.2257538","-0.058914185","9.602798","sit up","0"
"90551465273014","3","-1.3131409","-0.1199646","9.678223","sit up","0"
"90551485262028","3","-1.1467438","-0.21932983","9.550125","sit up","0"
"90551505220524","3","-1.1204071","-0.27919006","9.5429535","sit up","0"
"90551525209537","3","-1.2365265","-0.24925232","9.777573","sit up","0"
"90551545168034","3","-1.3490448","-0.15467834","9.8003235","sit up","0"
"90551565157047","3","-1.3825684","-0.13673401","9.752441","sit up","0"
"90551585146061","3","-1.27005","-0.12715149","9.643509","sit up","0"
"90551605135075","3","-1.1156158","-0.02420044","9.565689","sit up","0"
"90551625093571","3","-1.0030823","0.06677246","9.598007","sit up","0"
"90551645082584","3","-0.9240875","0.10748291","9.52858","sit up","0"
"90551665041080","3","-0.90133667","0.067977905","9.50943","sit up","0"
"90551685030094","3","-0.9647827","0.055999756","9.564499","sit up","0"
"90551705019108","3","-0.9827423","0.015304565","9.58963","sit up","0"
"90551725008121","3","-1.0557556","-0.10321045","9.583649","sit up","0"
"90551744997135","3","-1.2460938","-0.23608398","9.684204","sit up","0"
"90551764986149","3","-1.3131409","-0.27679443","9.688995","sit up","0"
"90551784944645","3","-1.2676544","-0.4587555","9.483093","sit up","0"
"90551804933659","3","-1.4220734","-0.5054321","9.56929","sit up","0"
"90551824922672","3","-1.4711609","-0.3653717","9.738068","sit up","0"
"90551844911686","3","-1.2125854","-0.14511108","9.553726","sit up","0"
"90551864870182","3","-1.0796967","-0.078063965","9.565689","sit up","0"
"90551884859196","3","-1.0761108","-0.009841919","9.602798","sit up","0"
"90551904817692","3","-0.9719696","-0.013427734","9.631531","sit up","0"
"90551924806705","3","-0.97914124","-0.10560608","9.697372","sit up","0"
"90551944795719","3","-1.1407623","-0.15348816","9.680618","sit up","0"
"90551964784733","3","-1.2125854","-0.08885193","9.856583","sit up","0"
"90551984743229","3","-1.0593567","0.01171875","9.795532","sit up","0"
"90552004732243","3","-1.1287842","-0.049346924","9.651886","sit up","0"
"90552024721256","3","-1.2760315","-0.109191895","9.813492","sit up","0"
"90552044710270","3","-1.3358765","-0.07687378","9.779968","sit up","0"
"90552064668766","3","-1.2939911","-0.066101074","9.762009","sit up","0"
"90552084657780","3","-1.2484894","-0.066101074","9.730896","sit up","0"
"90552104646793","3","-1.3119354","-0.0289917","9.64949","sit up","0"
"90552124635807","3","-1.1994171","-0.001449585","9.680618","sit up","0"
"90552144594303","3","-1.0354156","-0.03138733","9.595612","sit up","0"
"90552164583317","3","-1.0461884","0.04522705","9.563293","sit up","0"
"90552184541813","3","-1.0413971","0.07875061","9.5872345","sit up","0"
"90552204530827","3","-0.89894104","0.027267456","9.523788","sit up","0"
"90552224519840","3","-0.9552002","0.053604126","9.514221","sit up","0"
"90552244508854","3","-1.0258331","0.05241394","9.507034","sit up","0"
"90552264467350","3","-1.0150604","-0.027786255","9.51062","sit up","0"
"90552284456364","3","-1.0401917","-0.018218994","9.557312","sit up","0"
"90552304445377","3","-1.11203","-0.027786255","9.564499","sit up","0"
"90552324434391","3","-1.088089","-0.02659607","9.637512","sit up","0"
"90552344423405","3","-1.0150604","-2.593994E-4","9.659073","sit up","0"
"90552364412418","3","-0.73254395","0.0021362305","9.709351","sit up","0"
"90552384370914","3","-0.7277527","-0.0289917","9.539352","sit up","0"
"90552404359928","3","-1.017456","-0.009841919","9.576462","sit up","0"
"90552424318424","3","-1.1611023","-0.005050659","9.697372","sit up","0"
"90552444307438","3","-0.81155396","-0.16784668","9.770401","sit up","0"
"90552464296452","3","-0.7277527","-0.15827942","9.690186","sit up","0"
"90552484285465","3","-0.98991394","-0.13673401","9.60878","sit up","0"
"90552504243961","3","-1.2927856","-0.1259613","9.742859","sit up","0"
"90552524232975","3","-1.2449036","0.09310913","9.908066","sit up","0"
"90552544191471","3","-0.5924835","-0.1151886","9.979889","sit up","0"
"90552564149967","3","-0.44763184","-0.4982605","9.718918","sit up","0"
"90552584138981","3","-1.3789825","-0.24327087","9.541748","sit up","0"
"90552604158512","3","-2.4467926","0.2559204","9.849411","sit up","0"
"90552624147526","3","-2.3390503","0.25473022","10.006226","sit up","0"
"90552644136539","3","-1.2975769","-0.0110321045","9.811096","sit up","0"
"90552664095036","3","-0.64276123","-0.049346924","9.432816","sit up","0"
"90552684084049","3","-0.8438721","-0.0062408447","9.389725","sit up","0"
"90552704042545","3","-1.2604675","0.16732788","9.789551","sit up","0"
"90552724031559","3","-1.2796173","0.15177917","9.612381","sit up","0"
"90552744020573","3","-1.1263885","0.075164795","9.493866","sit up","0"
"90552763979069","3","-0.82351685","0.01171875","9.546539","sit up","0"
"90552783968082","3","-0.75408936","0.048828125","9.522598","sit up","0"
"90552803957096","3","-0.91690063","0.06437683","9.536957","sit up","0"
"90552823915592","3","-0.9288635","0.12184143","9.611176","sit up","0"
"90552843904606","3","-0.89175415","0.003326416","9.521393","sit up","0"
"90552863893619","3","-0.9611969","0.02368164","9.563293","sit up","0"
"90552883882633","3","-1.029419","0.0284729","9.507034","sit up","0"
"90552903871647","3","-1.0557556","0.02128601","9.575272","sit up","0"
"90552923860661","3","-1.0258331","0.053604126","9.654282","sit up","0"
"90552943819157","3","-0.9156952","0.055999756","9.595612","sit up","0"
"90552963808170","3","-0.9731598","0.072769165","9.544144","sit up","0"
"90552983797184","3","-1.1287842","0.14698792","9.560898","sit up","0"
"90553003786198","3","-1.384964","0.18888855","9.6064","sit up","0"
"90553023744694","3","-1.6112213","0.15057373","9.855392","sit up","0"
"90553043703190","3","-1.4280548","0.09790039","9.68779","sit up","0"
"90553063692203","3","-1.2281494","0.089523315","9.526184","sit up","0"
"90553083681217","3","-1.1491394","0.12184143","9.708145","sit up","0"
"90553103639713","3","-1.0186462","0.120651245","9.7057495","sit up","0"
"90553123628727","3","-1.0952606","0.10508728","9.720123","sit up","0"
"90553143587223","3","-1.2963715","0.108673096","9.630341","sit up","0"
"90553163606754","3","-1.3789825","0.0284729","9.554916","sit up","0"
"90553183595768","3","-1.3753815","0.017700195","9.772797","sit up","0"
"90553203584782","3","-1.1850433","0.084732056","9.704559","sit up","0"
"90553223543278","3","-1.0114746","0.099105835","9.615967","sit up","0"
"90553243501774","3","-1.0785065","0.120651245","9.678223","sit up","0"
"90553263490787","3","-1.3682098","0.020095825","9.813492","sit up","0"
"90553283479801","3","-1.3873596","0.02128601","9.806305","sit up","0"
"90553303468815","3","-1.2628632","0.04762268","9.60878","sit up","0"
"90553323457828","3","-1.3023682","-0.037368774","9.739273","sit up","0"
"90553343416325","3","-1.2987671","-0.015823364","9.724899","sit up","0"
"90553363405338","3","-1.2951813","0.024871826","9.571671","sit up","0"
"90553383394352","3","-1.3334961","0.053604126","9.704559","sit up","0"
"90553403383366","3","-1.2616577","0.06916809","9.660263","sit up","0"
"90553423341862","3","-1.2006073","0.06199646","9.631531","sit up","0"
"90553443300358","3","-1.2365265","0.06437683","9.609985","sit up","0"
"90553463289371","3","-1.2185669","0.07156372","9.595612","sit up","0"
"90553483278385","3","-1.1730804","0.058395386","9.614777","sit up","0"
"90553503267399","3","-1.1682892","0.02607727","9.57048","sit up","0"
"90553523256412","3","-1.1790619","0.051208496","9.614777","sit up","0"
"90553543245426","3","-1.1682892","0.087127686","9.604004","sit up","0"
"90553563234440","3","-1.167099","0.060791016","9.600403","sit up","0"
"90553583192936","3","-1.2030029","0.041641235","9.630341","sit up","0"
"90553603181950","3","-1.2137756","0.04762268","9.643509","sit up","0"
"90553623140446","3","-1.2317352","0.055999756","9.648285","sit up","0"
"90553643129459","3","-1.2592621","0.06199646","9.657867","sit up","0"
"90553663118473","3","-1.266449","0.04043579","9.651886","sit up","0"
"90553683107487","3","-1.2592621","0.03565979","9.684204","sit up","0"
"90553703065983","3","-1.2604675","0.03086853","9.672226","sit up","0"
"90553723054996","3","-1.2796173","0.039245605","9.680618","sit up","0"
"90553743044010","3","-1.2628632","0.034454346","9.662659","sit up","0"
"90553763033024","3","-1.2197571","0.04283142","9.648285","sit up","0"
"90553783022037","3","-1.2293396","0.04043579","9.654282","sit up","0"
"90553803011051","3","-1.2233582","0.039245605","9.645905","sit up","0"
"90553822969547","3","-1.2209625","0.039245605","9.651886","sit up","0"
"90553842958561","3","-1.2317352","0.044036865","9.620758","sit up","0"
"90553862917057","3","-1.2053986","0.072769165","9.624344","sit up","0"
"90553882906071","3","-1.2030029","0.046432495","9.609985","sit up","0"
"90553902895084","3","-1.2233582","0.06437683","9.620758","sit up","0"
"90553922884098","3","-1.235321","0.051208496","9.635117","sit up","0"
"90553942842594","3","-1.2149811","0.04043579","9.618362","sit up","0"
"90553962831608","3","-1.2245483","0.051208496","9.619568","sit up","0"
"90553982790104","3","-1.2532806","0.05001831","9.644699","sit up","0"
"90554002779118","3","-1.2401123","0.05960083","9.633926","sit up","0"
"90554022768131","3","-1.2221527","0.034454346","9.639908","sit up","0"
"90554042757145","3","-1.2341309","0.05480957","9.648285","sit up","0"
"90554062746159","3","-1.230545","0.03804016","9.657867","sit up","0"
"90554082735172","3","-1.2425079","0.024871826","9.66745","sit up","0"
"90554102693668","3","-1.2401123","0.053604126","9.66745","sit up","0"
"90554122652164","3","-1.2401123","0.055999756","9.660263","sit up","0"
"90554142610661","3","-1.2437134","0.039245605","9.648285","sit up","0"
"90554162599674","3","-1.2221527","0.051208496","9.636322","sit up","0"
"90554182558170","3","-1.2437134","0.053604126","9.66745","sit up","0"
"90554202577702","3","-1.2221527","0.048828125","9.629135","sit up","0"
"90554222566715","3","-1.2161713","0.03565979","9.631531","sit up","0"
"90554242555729","3","-1.2197571","0.041641235","9.643509","sit up","0"
"90554262514225","3","-1.2317352","0.05480957","9.629135","sit up","0"
"90554282503239","3","-1.2437134","0.060791016","9.633926","sit up","0"
"90554302492252","3","-1.2389221","0.053604126","9.648285","sit up","0"
"90554322481266","3","-1.230545","0.05001831","9.648285","sit up","0"
"90554342470280","3","-1.2257538","0.046432495","9.638718","sit up","0"
"90554362459293","3","-1.2257538","0.04283142","9.655472","sit up","0"
"90554382417789","3","-1.2365265","0.0284729","9.639908","sit up","0"
"90554402406803","3","-1.226944","0.041641235","9.662659","sit up","0"
"90554422365299","3","-1.2293396","0.02368164","9.637512","sit up","0"
"90554442354313","3","-1.2460938","0.039245605","9.635117","sit up","0"
"90554462343327","3","-1.2365265","0.05001831","9.657867","sit up","0"
"90554482332340","3","-1.2329254","0.051208496","9.659073","sit up","0"
"90554502290836","3","-1.235321","0.046432495","9.644699","sit up","0"
"90554522279850","3","-1.235321","0.048828125","9.645905","sit up","0"
"90554542238346","3","-1.2221527","0.046432495","9.629135","sit up","0"
"90554562227360","3","-1.2484894","0.036849976","9.627945","sit up","0"
"90554582216373","3","-1.2401123","0.04522705","9.641113","sit up","0"
"90554602205387","3","-1.2377167","0.055999756","9.636322","sit up","0"
"90554622194401","3","-1.230545","0.053604126","9.641113","sit up","0"
"90554642183414","3","-1.230545","0.04762268","9.633926","sit up","0"
"90554662141911","3","-1.226944","0.04283142","9.644699","sit up","0"
"90554682130924","3","-1.2329254","0.055999756","9.635117","sit up","0"
"90554702119938","3","-1.230545","0.044036865","9.64949","sit up","0"
"90554722108952","3","-1.2365265","0.05480957","9.643509","sit up","0"
"90554742067448","3","-1.2377167","0.053604126","9.641113","sit up","0"
"90554762056461","3","-1.2365265","0.06916809","9.643509","stand up","0"
"90554782014957","3","-1.2401123","0.051208496","9.641113","stand up","0"
"90554802003971","3","-1.2425079","0.05001831","9.641113","stand up","0"
"90554821962467","3","-1.2389221","0.046432495","9.64949","stand up","0"
"90554841951481","3","-1.2257538","0.039245605","9.637512","stand up","0"
"90554861940494","3","-1.2365265","0.04522705","9.620758","stand up","0"
"90554881929508","3","-1.2341309","0.046432495","9.656677","stand up","0"
"90554901918522","3","-1.2197571","0.055999756","9.663849","stand up","0"
"90554921907536","3","-1.2221527","0.034454346","9.637512","stand up","0"
"90554941866032","3","-1.2341309","0.046432495","9.650681","stand up","0"
"90554961855045","3","-1.2377167","0.036849976","9.662659","stand up","0"
"90554981843776","3","-1.2401123","0.046432495","9.637512","stand up","0"
"90555001832790","3","-1.2293396","0.058395386","9.613571","stand up","0"
"90555021791286","3","-1.2233582","0.03086853","9.64949","stand up","0"
"90555041780299","3","-1.2329254","0.051208496","9.620758","stand up","0"
"90555061738795","3","-1.2389221","0.05001831","9.64949","stand up","0"
"90555081727809","3","-1.2377167","0.04283142","9.639908","stand up","0"
"90555101716823","3","-1.2341309","0.039245605","9.643509","stand up","0"
"90555121705836","3","-1.2245483","0.03804016","9.636322","stand up","0"
"90555141664333","3","-1.2245483","0.03804016","9.604004","stand up","0"
"90555161653346","3","-1.2484894","0.03326416","9.612381","stand up","0"
"90555181642360","3","-1.235321","0.04283142","9.629135","stand up","0"
"90555201600856","3","-1.2365265","0.036849976","9.5872345","stand up","0"
"90555221559352","3","-1.250885","0.04283142","9.598007","stand up","0"
"90555241548366","3","-1.2377167","0.039245605","9.58844","stand up","0"
"90555261537379","3","-1.2472992","0.048828125","9.630341","stand up","0"
"90555281526393","3","-1.2532806","0.03565979","9.673431","stand up","0"
"90555301515407","3","-1.2101898","0.048828125","9.642303","stand up","0"
"90555321504420","3","-1.266449","0.04522705","9.647095","stand up","0"
"90555341462917","3","-1.3131409","0.029663086","9.693787","stand up","0"
"90555361451930","3","-1.2772217","0.024871826","9.690186","stand up","0"
"90555381440944","3","-1.2868042","0.046432495","9.698563","stand up","0"
"90555401429958","3","-1.321518","0.03565979","9.709351","stand up","0"
"90555421388454","3","-1.3370819","0.020095825","9.710541","stand up","0"
"90555441377467","3","-1.3646088","0.020095825","9.711731","stand up","0"
"90555461366481","3","-1.3334961","0.020095825","9.757233","stand up","0"
"90555481355495","3","-1.2915955","0.03565979","9.644699","stand up","0"
"90555501344508","3","-1.3179321","0.005722046","9.60878","stand up","0"
"90555521333522","3","-1.3466644","-2.593994E-4","9.696182","stand up","0"
"90555541292018","3","-1.3203278","-0.0038452148","9.721313","stand up","0"
"90555561281032","3","-1.3011627","0.02368164","9.66864","stand up","0"
"90555581239528","3","-1.3514404","0.06677246","9.684204","stand up","0"
"90555601228542","3","-1.52742","0.022491455","9.733292","stand up","0"
"90555621217555","3","-1.7680359","-0.06489563","9.934402","stand up","0"
"90555641206569","3","-1.7991638","-0.01461792","10.159454","stand up","0"
"90555661165065","3","-1.4029236","0.106277466","10.316269","stand up","0"
"90555681154079","3","-0.85943604","0.13861084","9.947571","stand up","0"
"90555701112575","3","-0.6499481","0.16972351","9.483093","stand up","0"
"90555721101588","3","-0.7947998","0.20085144","9.298737","stand up","0"
"90555741090602","3","-0.86302185","0.106277466","9.771591","stand up","0"
"90555761079616","3","-0.4931183","0.07156372","9.469925","stand up","0"
"90555781068629","3","-0.4560089","0.003326416","9.520203","stand up","0"
"90555801057643","3","-0.51467896","0.115859985","9.378937","stand up","0"
"90555821016139","3","-0.55895996","0.34928894","8.730118","stand up","0"
"90555841005153","3","-0.73254395","0.21162415","9.328659","stand up","0"
"90555860963649","3","-0.81993103","0.082336426","10.210922","stand up","0"
"90555880952663","3","-0.6894531","0.13142395","9.729691","stand up","0"
"90555900941676","3","-0.7265625","0.19126892","9.322678","stand up","0"
"90555920930690","3","-0.74331665","0.22000122","9.467529","stand up","0"
"90555940889186","3","-0.73254395","0.18049622","9.68779","stand up","0"
"90555960878200","3","-0.71339417","0.12663269","9.856583","stand up","0"
"90555980836696","3","-0.7205658","0.14219666","9.66745","stand up","0"
"90556000825710","3","-0.7157898","0.1661377","9.578857","stand up","0"
"90556020814723","3","-0.6583252","0.19126892","9.6064","stand up","0"
"90556040803737","3","-0.8067627","0.18289185","9.752441","stand up","0"
"90556060792751","3","-0.8498535","0.13261414","9.74646","stand up","0"
"90556080781764","3","-0.6762848","0.17332458","9.655472","stand up","0"
"90556100740260","3","-0.6702881","0.16853333","9.534561","stand up","0"
"90556120729274","3","-0.8869629","0.16972351","9.787155","stand up","0"
"90556140718288","3","-0.6762848","0.16494751","9.696182","stand up","0"
"90556160707301","3","-0.6882477","0.16494751","9.643509","stand up","0"
"90556180665797","3","-0.78163147","0.14938354","9.680618","stand up","0"
"90556200654811","3","-0.71099854","0.16134644","9.706955","stand up","0"
"90556220613307","3","-0.73612976","0.17092896","9.673431","stand up","0"
"90556240602321","3","-0.73373413","0.15655518","9.678223","stand up","0"
"90556260560817","3","-0.72177124","0.16972351","9.684204","stand up","0"
"90556280549831","3","-0.7516937","0.15057373","9.683014","stand up","0"
"90556300538844","3","-0.72895813","0.15177917","9.691391","stand up","0"
"90556320558376","3","-0.73254395","0.1661377","9.693787","stand up","0"
"90556340547389","3","-0.73612976","0.16015625","9.662659","stand up","0"
"90556360505885","3","-0.7277527","0.1661377","9.665054","stand up","0"
"90556380464381","3","-0.7349396","0.17451477","9.703354","stand up","0"
"90556400453395","3","-0.73135376","0.15776062","9.66745","stand up","0"
"90556420442409","3","-0.72895813","0.16853333","9.660263","stand up","0"
"90556440431422","3","-0.7301483","0.17211914","9.721313","stand up","0"
"90556460389919","3","-0.7481079","0.14938354","9.694977","stand up","0"
"90556480378932","3","-0.72535706","0.16134644","9.643509","stand up","0"
"90556500337428","3","-0.7277527","0.15296936","9.6866","stand up","0"
"90556520326442","3","-0.7277527","0.17332458","9.656677","stand up","0"
"90556540315456","3","-0.7193756","0.16255188","9.706955","stand up","0"
"90556560304469","3","-0.72535706","0.16015625","9.691391","stand up","0"
"90556580262965","3","-0.74212646","0.1661377","9.662659","stand up","0"
"90556600251979","3","-0.7492981","0.15776062","9.712936","stand up","0"
"90556620240993","3","-0.7301483","0.17451477","9.683014","stand up","0"
"90556640230006","3","-0.7349396","0.15415955","9.678223","stand up","0"
"90556660188503","3","-0.72177124","0.13980103","9.659073","stand up","0"
"90556680177516","3","-0.73254395","0.14578247","9.662659","stand up","0"
"90556700166530","3","-0.7481079","0.18888855","9.691391","stand up","0"
"90556720155544","3","-0.72177124","0.14698792","9.723709","stand up","0"
"90556740114040","3","-0.7181854","0.16732788","9.641113","stand up","0"
"90556760103053","3","-0.71698","0.17930603","9.662659","stand up","0"
"90556780061549","3","-0.72895813","0.14698792","9.715332","stand up","0"
"90556800050563","3","-0.74331665","0.18888855","9.641113","stand up","0"
"90556820039577","3","-0.7265625","0.14938354","9.702164","stand up","0"
"90556840028590","3","-0.73612976","0.15057373","9.691391","stand up","0"
"90556859987086","3","-0.74331665","0.16732788","9.696182","stand up","0"
"90556879976100","3","-0.7229614","0.17211914","9.68779","stand up","0"
"90556899965114","3","-0.7205658","0.16134644","9.6662445","stand up","0"
"90556919954128","3","-0.72895813","0.1481781","9.697372","stand up","0"
"90556939943141","3","-0.73612976","0.14338684","9.679413","stand up","0"
"90556959932155","3","-0.7277527","0.1769104","9.659073","stand up","0"
"90556979890651","3","-0.74212646","0.16853333","9.685394","stand up","0"
"90556999879665","3","-0.7277527","0.15536499","9.709351","stand up","0"
"90557019838161","3","-0.74212646","0.16374207","9.650681","stand up","0"
"90557039827174","3","-0.7385254","0.15296936","9.679413","stand up","0"
"90557059785670","3","-0.73135376","0.1661377","9.6866","stand up","0"
"90557079774684","3","-0.7349396","0.17092896","9.696182","stand up","0"
"90557099763698","3","-0.71698","0.14938354","9.683014","stand up","0"
"90557119752711","3","-0.72895813","0.15536499","9.681808","stand up","0"
"90557139711208","3","-0.7349396","0.15536499","9.702164","stand up","0"
"90557159700221","3","-0.72177124","0.1661377","9.694977","stand up","0"
"90557179689235","3","-0.7157898","0.16972351","9.678223","stand up","0"
"90557199678249","3","-0.7229614","0.14219666","9.66864","stand up","0"
"90557219667262","3","-0.7385254","0.15415955","9.684204","stand up","0"
"90557239656276","3","-0.7445221","0.19247437","9.699768","stand up","0"
"90557259614772","3","-0.73135376","0.16134644","9.693787","stand up","0"
"90557279603786","3","-0.7265625","0.14219666","9.633926","stand up","0"
"90557299562282","3","-0.72535706","0.17092896","9.66745","stand up","0"
"90557319551295","3","-0.75289917","0.15776062","9.7608185","stand up","0"
"90557339540309","3","-0.73373413","0.1876831","9.694977","stand up","0"
"90557359529323","3","-0.72535706","0.15057373","9.644699","stand up","0"
"90557379487819","3","-0.72535706","0.0859375","9.669846","stand up","0"
"90557399476833","3","-0.7373352","0.15415955","9.642303","stand up","0"
"90557419435329","3","-0.73612976","0.23556519","9.788345","stand up","0"
"90557439424342","3","-0.7205658","0.19247437","9.693787","stand up","0"
"90557459413356","3","-0.7097931","0.123046875","9.6267395","stand up","0"
"90557479402370","3","-0.7181854","0.1661377","9.64949","stand up","0"
"90557499391383","3","-0.7600708","0.120651245","9.823074","stand up","0"
"90557519380397","3","-0.7265625","0.20443726","9.623154","stand up","0"
"90557539338893","3","-0.71458435","0.19966125","9.671036","stand up","0"
"90557559327907","3","-0.7181854","0.115859985","9.710541","stand up","0"
"90557579286403","3","-0.7373352","0.15655518","9.645905","stand up","0"
"90557599275417","3","-0.7157898","0.19247437","9.7285","stand up","0"
"90557619264430","3","-0.70381165","0.20205688","9.629135","stand up","0"
"90557639253444","3","-0.7481079","0.14938354","9.696182","stand up","0"
"90557659211940","3","-0.7193756","0.14219666","9.684204","stand up","0"
"90557679200954","3","-0.72177124","0.15536499","9.660263","stand up","0"
"90557699159450","3","-0.7265625","0.19366455","9.708145","stand up","0"
"90557719148463","3","-0.71698","0.19126892","9.684204","stand up","0"
"90557739137477","3","-0.7181854","0.1661377","9.691391","stand up","0"
"90557759126491","3","-0.7301483","0.14099121","9.675827","stand up","0"
"90557779115504","3","-0.7301483","0.15177917","9.674622","stand up","0"
"90557799104518","3","-0.7349396","0.17211914","9.692581","stand up","0"
"90557819063014","3","-0.7457123","0.16732788","9.698563","stand up","0"
"90557839052028","3","-0.7277527","0.16134644","9.675827","stand up","0"
"90557859041042","3","-0.7229614","0.15776062","9.68779","stand up","0"
"90557879030055","3","-0.72416687","0.15057373","9.693787","stand up","0"
"90557898988551","3","-0.7229614","0.20205688","9.683014","stand up","0"
"90557918977565","3","-0.71458435","0.16972351","9.692581","stand up","0"
"90557938936061","3","-0.7181854","0.14219666","9.693787","stand up","0"
"90557958925075","3","-0.7277527","0.15776062","9.677017","stand up","0"
"90557978883571","3","-0.73135376","0.16853333","9.703354","stand up","0"
"90557998872585","3","-0.7373352","0.19247437","9.702164","stand up","0"
"90558018861598","3","-0.7277527","0.16015625","9.694977","stand up","0"
"90558038850612","3","-0.71339417","0.15057373","9.662659","stand up","0"
"90558058839626","3","-0.73254395","0.1481781","9.697372","stand up","0"
"90558078828639","3","-0.72895813","0.1589508","9.690186","stand up","0"
"90558098787135","3","-0.7229614","0.17930603","9.673431","stand up","0"
"90558118776149","3","-0.72416687","0.16732788","9.671036","stand up","0"
"90558138765163","3","-0.7385254","0.14938354","9.675827","stand up","0"
"90558158754176","3","-0.7229614","0.1589508","9.698563","stand up","0"
"90558178712672","3","-0.7277527","0.17572021","9.698563","stand up","0"
"90558198701686","3","-0.7205658","0.17092896","9.669846","stand up","0"
"90558218660182","3","-0.71698","0.14698792","9.681808","stand up","0"
"90558238649196","3","-0.7205658","0.14938354","9.678223","stand up","0"
"90558258638210","3","-0.7205658","0.16853333","9.6662445","stand up","0"
"90558278627223","3","-0.7205658","0.1769104","9.708145","stand up","0"
"90558298585719","3","-0.71339417","0.16494751","9.690186","stand up","0"
"90558318574733","3","-0.7157898","0.16134644","9.693787","stand up","0"
"90558338563747","3","-0.7301483","0.16853333","9.699768","stand up","0"
"90558358552760","3","-0.73373413","0.16374207","9.688995","stand up","0"
"90558378511256","3","-0.7193756","0.15655518","9.671036","stand up","0"
"90558398500270","3","-0.7193756","0.15776062","9.660263","stand up","0"
"90558418489284","3","-0.72895813","0.15296936","9.693787","stand up","0"
"90558438478297","3","-0.72535706","0.1769104","9.692581","stand up","0"
"90558458436794","3","-0.72177124","0.17811584","9.665054","stand up","0"
"90558478425807","3","-0.72177124","0.15415955","9.6866","stand up","0"
"90558498384303","3","-0.72177124","0.1589508","9.679413","stand up","0"
"90558518373317","3","-0.75289917","0.16494751","9.680618","stand up","0"
"90558538362331","3","-0.7229614","0.15536499","9.669846","stand up","0"
"90558558351344","3","-0.7205658","0.18528748","9.679413","stand up","0"
"90558578309840","3","-0.73373413","0.17211914","9.7285","stand up","0"
"90558598298854","3","-0.7205658","0.15655518","9.672226","stand up","0"
"90558618287868","3","-0.71458435","0.15057373","9.642303","stand up","0"
"90558638276881","3","-0.7265625","0.13980103","9.683014","stand up","0"
"90558658265895","3","-0.73135376","0.17572021","9.677017","stand up","0"
"90558678254909","3","-0.73254395","0.19126892","9.736877","stand up","0"
"90558698213405","3","-0.7097931","0.15536499","9.669846","stand up","0"
"90558718202419","3","-0.71339417","0.14459229","9.659073","stand up","0"
"90558738160915","3","-0.7193756","0.1589508","9.699768","stand up","0"
"90558838075465","3","-0.72895813","0.16134644","9.644699","none","1"
"90558858064479","3","-0.72895813","0.17930603","9.721313","none","1"
"90558878053493","3","-0.72535706","0.16732788","9.66745","none","1"
"90558898042506","3","-0.71458435","0.13980103","9.679413","none","1"
"90558918031520","3","-0.7181854","0.14099121","9.690186","none","1"
"90558938020534","3","-0.73254395","0.15536499","9.688995","none","1"
"90558958009547","3","-0.72535706","0.19247437","9.685394","none","1"
"90558977968044","3","-0.71099854","0.16255188","9.699768","none","1"
"90558997957057","3","-0.7181854","0.15536499","9.671036","none","1"
"90559017915553","3","-0.71698","0.16853333","9.662659","none","1"
"90559037904567","3","-0.72535706","0.15776062","9.720123","none","1"
"90559057893581","3","-0.7157898","0.16732788","9.650681","none","1"
"90559077882594","3","-0.73135376","0.16732788","9.699768","none","1"
"90559097841090","3","-0.7385254","0.14938354","9.702164","none","1"
"90559117830104","3","-0.7277527","0.17930603","9.669846","none","1"
"90559137788600","3","-0.7181854","0.17930603","9.714127","none","1"
"90559157777614","3","-0.72177124","0.16134644","9.663849","none","1"
"90559177766628","3","-0.72895813","0.16134644","9.661453","none","1"
"90559197755641","3","-0.71339417","0.16494751","9.7057495","none","1"
"90559217744655","3","-0.7301483","0.15776062","9.675827","none","1"
"90559237733669","3","-0.7086029","0.17572021","9.688995","none","1"
"90559257692165","3","-0.7121887","0.16255188","9.685394","none","1"
"90559277681178","3","-0.74331665","0.1661377","9.690186","none","1"
"90559297639674","3","-0.73373413","0.15057373","9.688995","none","1"
"90559317628688","3","-0.71458435","0.1661377","9.672226","none","1"
"90559337617702","3","-0.7229614","0.16255188","9.685394","none","1"
"90559357606715","3","-0.7181854","0.18049622","9.696182","none","1"
"90559377565211","3","-0.73254395","0.17211914","9.698563","none","1"
"90559397554225","3","-0.7157898","0.16374207","9.68779","none","1"
"90559417512721","3","-0.71458435","0.15776062","9.677017","none","1"
"90559437501735","3","-0.7301483","0.16972351","9.690186","none","1"
"90559457490749","3","-0.7181854","0.15776062","9.691391","none","1"
"90559477479762","3","-0.7121887","0.15415955","9.692581","none","1"
"90559497468776","3","-0.73612976","0.15536499","9.683014","none","1"
"90559517457790","3","-0.73973083","0.16134644","9.680618","none","1"
"90559537416286","3","-0.7157898","0.16134644","9.697372","none","1"
"90559557405299","3","-0.7205658","0.16732788","9.674622","none","1"
"90559577363795","3","-0.7097931","0.15415955","9.669846","none","1"
"90559597352809","3","-0.72535706","0.16494751","9.684204","none","1"
"90559617341823","3","-0.73254395","0.17332458","9.680618","none","1"
"90559637330836","3","-0.7229614","0.16374207","9.697372","none","1"
"90559657289333","3","-0.7385254","0.16255188","9.678223","none","1"
"90559677278346","3","-0.72177124","0.1481781","9.688995","none","1"
"90559697236842","3","-0.73254395","0.16494751","9.6866","none","1"
"90559717225856","3","-0.7277527","0.16732788","9.68779","none","1"
"90559737214870","3","-0.71458435","0.1589508","9.684204","none","1"
"90559757203883","3","-0.7265625","0.14938354","9.699768","none","1"
"90559777192897","3","-0.72895813","0.16972351","9.688995","none","1"
"90559797181911","3","-0.7301483","0.16255188","9.683014","none","1"
"90559817140407","3","-0.72895813","0.16732788","9.688995","none","1"
"90559837129420","3","-0.71099854","0.16494751","9.690186","none","1"
"90559857087917","3","-0.7121887","0.1589508","9.680618","none","1"
"90559877076930","3","-0.71458435","0.1661377","9.6662445","none","1"
"90559897065944","3","-0.72177124","0.16494751","9.674622","none","1"
"90559917054958","3","-0.71458435","0.16255188","9.690186","none","1"
"90559937013454","3","-0.7193756","0.15776062","9.684204","none","1"
"90559957002467","3","-0.72535706","0.15296936","9.691391","none","1"
"90559976960963","3","-0.72177124","0.16853333","9.684204","none","1"
"90559996949977","3","-0.7205658","0.17332458","9.672226","none","1"
"90560016938991","3","-0.7229614","0.15296936","9.679413","none","1"
"90560036928004","3","-0.7121887","0.17332458","9.684204","none","1"
"90560056917018","3","-0.71698","0.17451477","9.679413","none","1"
"90560076906032","3","-0.7193756","0.15536499","9.677017","none","1"
"90560096864528","3","-0.7205658","0.16972351","9.673431","none","1"
"90560116853542","3","-0.72535706","0.16374207","9.68779","none","1"
"90560136842555","3","-0.7373352","0.1589508","9.68779","none","1"
"90560156831569","3","-0.72535706","0.16972351","9.688995","none","1"
"90560176790065","3","-0.71339417","0.16972351","9.677017","none","1"
"90560196779079","3","-0.7301483","0.17572021","9.693787","none","1"
"90560216737575","3","-0.73135376","0.16134644","9.675827","none","1"
"90560236726588","3","-0.7265625","0.17211914","9.683014","none","1"
"90560256715602","3","-0.7193756","0.16015625","9.696182","none","1"
"90560276704616","3","-0.72416687","0.16494751","9.673431","none","1"
"90560296663112","3","-0.73254395","0.16134644","9.674622","none","1"
"90560316652126","3","-0.7181854","0.16134644","9.68779","none","1"
"90560336641139","3","-0.71698","0.16134644","9.692581","none","1"
"90560356630153","3","-0.7074127","0.16374207","9.688995","none","1"
"90560376588649","3","-0.72895813","0.16374207","9.690186","none","1"
"90560396577663","3","-0.7349396","0.16374207","9.688995","none","1"
"90560416566676","3","-0.72416687","0.17572021","9.691391","none","1"
"90560436555690","3","-0.72895813","0.15536499","9.684204","none","1"
"90560456514186","3","-0.72895813","0.17451477","9.68779","none","1"
"90560476503200","3","-0.73135376","0.17811584","9.692581","none","1"
"90560496461696","3","-0.71458435","0.16494751","9.6866","none","1"
"90560516450710","3","-0.7181854","0.16732788","9.683014","none","1"
"90560536439723","3","-0.71099854","0.16732788","9.6866","none","1"
"90560556428737","3","-0.73254395","0.16134644","9.6866","none","1"
"90560576387233","3","-0.72895813","0.16972351","9.683014","none","1"
"90560596376247","3","-0.72416687","0.17332458","9.688995","none","1"
"90560616365260","3","-0.72535706","0.16134644","9.691391","none","1"
"90560636354274","3","-0.71698","0.16015625","9.678223","none","1"
"90560656312770","3","-0.7181854","0.17332458","9.691391","none","1"
"90560676301784","3","-0.7121887","0.16972351","9.68779","none","1"
"90560696260280","3","-0.7193756","0.15536499","9.679413","none","1"
"90560716218776","3","-0.71458435","0.16494751","9.683014","none","1"
"90560736177272","3","-0.7349396","0.16374207","9.691391","none","1"
"90560756166286","3","-0.7349396","0.17092896","9.693787","none","1"
"90560776124782","3","-0.7157898","0.17211914","9.700958","none","1"
"90560796144313","3","-0.7277527","0.17332458","9.694977","none","1"
"90560816133327","3","-0.73254395","0.16015625","9.699768","none","1"
"90560836122340","3","-0.7086029","0.16015625","9.677017","none","1"
"90560856080836","3","-0.7205658","0.16853333","9.671036","none","1"
"90560876069850","3","-0.7265625","0.16494751","9.690186","none","1"
"90560896058864","3","-0.72895813","0.16732788","9.675827","none","1"
"90560916047878","3","-0.7277527","0.17451477","9.662659","none","1"
"90560936006374","3","-0.73135376","0.16015625","9.678223","none","1"
"90560955995387","3","-0.7193756","0.16853333","9.7057495","none","1"
"90560975984401","3","-0.72535706","0.17092896","9.6866","none","1"
"90560995973415","3","-0.7229614","0.16853333","9.68779","none","1"
"90561015931911","3","-0.7086029","0.16374207","9.694977","none","1"
"90561035920924","3","-0.7193756","0.15655518","9.693787","none","1"
"90561055909938","3","-0.7157898","0.1661377","9.684204","none","1"
"90561075898952","3","-0.72535706","0.16374207","9.679413","none","1"
"90561095857448","3","-0.71458435","0.16255188","9.677017","none","1"
"90561115846461","3","-0.7205658","0.16134644","9.681808","none","1"
"90561135804958","3","-0.72895813","0.1661377","9.685394","none","1"
"90561155793971","3","-0.7229614","0.17332458","9.684204","none","1"
"90561175782985","3","-0.7277527","0.16255188","9.692581","none","1"
"90561195771999","3","-0.7229614","0.17092896","9.692581","none","1"
"90561215761012","3","-0.7181854","0.16732788","9.694977","none","1"
"90561235750026","3","-0.7301483","0.16972351","9.68779","none","1"
"90561255708522","3","-0.71698","0.16255188","9.6866","none","1"
"90561275697536","3","-0.7157898","0.16972351","9.696182","none","1"
"90561295656032","3","-0.7265625","0.16494751","9.691391","none","1"
"90561315645045","3","-0.7301483","0.16134644","9.680618","none","1"
"90561335634059","3","-0.72416687","0.17211914","9.669846","none","1"
"90561355623073","3","-0.73254395","0.16972351","9.691391","none","1"
"90561375581569","3","-0.7301483","0.1661377","9.693787","none","1"
"90561395570583","3","-0.7086029","0.17451477","9.692581","none","1"
"90561415529079","3","-0.73135376","0.16374207","9.683014","none","1"
"90561435518092","3","-0.7301483","0.17211914","9.675827","none","1"
"90561455507106","3","-0.7205658","0.16853333","9.6866","none","1"
"90561475496120","3","-0.7121887","0.1661377","9.677017","none","1"
"90561495485133","3","-0.71458435","0.16255188","9.66745","none","1"
"90561515474147","3","-0.71339417","0.17811584","9.680618","none","1"
"90561535432643","3","-0.7349396","0.17092896","9.706955","none","1"
"90561555421657","3","-0.72416687","0.16134644","9.694977","none","1"
"90561575380153","3","-0.7086029","0.16134644","9.683014","none","1"
"90561595369167","3","-0.7181854","0.1661377","9.683014","none","1"
"90561615358180","3","-0.7277527","0.17332458","9.691391","none","1"
"90561635347194","3","-0.72895813","0.16732788","9.680618","none","1"
"90561655305690","3","-0.7181854","0.15776062","9.685394","none","1"
"90561675294704","3","-0.7301483","0.15536499","9.681808","none","1"
"90561695253200","3","-0.7157898","0.16732788","9.68779","none","1"
"90561715242213","3","-0.7121887","0.16134644","9.678223","none","1"
"90561735231227","3","-0.7121887","0.15415955","9.684204","none","1"
"90561755220241","3","-0.7193756","0.14698792","9.675827","none","1"
"90561775209254","3","-0.73135376","0.16853333","9.673431","none","1"
"90561795167751","3","-0.7205658","0.16374207","9.683014","none","1"
"90561815126247","3","-0.72177124","0.16134644","9.688995","none","1"
"90561835115260","3","-0.71698","0.16853333","9.685394","none","1"
"90561855104274","3","-0.71698","0.16494751","9.684204","none","1"
"90561875062770","3","-0.71698","0.16732788","9.688995","none","1"
"90561895051784","3","-0.7205658","0.1661377","9.684204","none","1"
"90561915040797","3","-0.72416687","0.17092896","9.68779","none","1"
"90561935029811","3","-0.71698","0.15655518","9.688995","none","1"
"90561955018825","3","-0.7074127","0.16374207","9.683014","none","1"
"90561974977321","3","-0.72177124","0.16494751","9.677017","none","1"
"90561994966335","3","-0.71698","0.15415955","9.6866","none","1"
"90562014955348","3","-0.71339417","0.15415955","9.699768","none","1"
"90562034944362","3","-0.71339417","0.1769104","9.693787","none","1"
"90562054933376","3","-0.7265625","0.18170166","9.66745","none","1"
"90562074922389","3","-0.7301483","0.16374207","9.673431","none","1"
"90562094880885","3","-0.7205658","0.15536499","9.6662445","none","1"
"90562114869899","3","-0.71458435","0.15655518","9.681808","none","1"
"90562134858913","3","-0.7229614","0.16853333","9.674622","none","1"
"90562154847926","3","-0.7277527","0.16374207","9.688995","none","1"
"90562174806422","3","-0.71458435","0.15536499","9.685394","none","1"
"90562194795436","3","-0.72177124","0.17092896","9.692581","none","1"
"90562214753932","3","-0.7229614","0.17092896","9.699768","none","1"
"90562234742946","3","-0.7121887","0.17092896","9.692581","none","1"
"90562254731960","3","-0.72416687","0.16853333","9.68779","none","1"
"90562274720973","3","-0.7205658","0.16494751","9.685394","none","1"
"90562294679469","3","-0.72177124","0.15655518","9.677017","none","1"
"90562314668483","3","-0.7193756","0.16015625","9.684204","none","1"
"90562334657497","3","-0.7205658","0.16374207","9.691391","none","1"
"90562354646510","3","-0.7349396","0.16374207","9.685394","none","1"
"90562374605006","3","-0.72177124","0.16255188","9.68779","none","1"
"90562394594020","3","-0.7181854","0.17930603","9.679413","none","1"
"90562414583034","3","-0.7157898","0.16494751","9.678223","none","1"
"90562434572047","3","-0.72416687","0.14938354","9.66864","none","1"
"90562454530544","3","-0.72416687","0.15776062","9.677017","none","1"
"90562474519557","3","-0.72535706","0.16134644","9.688995","none","1"
"90562494478053","3","-0.7181854","0.1589508","9.685394","none","1"
"90562514467067","3","-0.7121887","0.1589508","9.692581","none","1"
"90562534456081","3","-0.7265625","0.16972351","9.681808","none","1"
"90562554445094","3","-0.7229614","0.17332458","9.66745","none","1"
"90562574403590","3","-0.7205658","0.16494751","9.683014","none","1"
"90562594362086","3","-0.7205658","0.16134644","9.696182","none","1"
"90562614351100","3","-0.7205658","0.16374207","9.688995","none","1"
"90562634340114","3","-0.7193756","0.16732788","9.685394","none","1"
"90562654329128","3","-0.71458435","0.16134644","9.685394","none","1"
"90562674318141","3","-0.7205658","0.15776062","9.681808","none","1"
"90562694276637","3","-0.7229614","0.15776062","9.679413","none","1"
"90562714265651","3","-0.73254395","0.15776062","9.696182","none","1"
"90562734254665","3","-0.71099854","0.16494751","9.680618","sit down","1"
"90562754243678","3","-0.71099854","0.16494751","9.685394","sit down","1"
"90562774202174","3","-0.71698","0.16972351","9.692581","sit down","1"
"90562794160670","3","-0.7181854","0.16134644","9.675827","sit down","1"
"90562814149684","3","-0.7229614","0.17572021","9.674622","sit down","1"
"90562834138698","3","-0.7157898","0.15655518","9.677017","sit down","1"
"90562854127711","3","-0.7205658","0.1661377","9.68779","sit down","1"
"90562874116725","3","-0.7229614","0.16853333","9.677017","sit down","1"
"90562894075221","3","-0.71099854","0.16494751","9.688995","sit down","1"
"90562914094753","3","-0.71339417","0.16134644","9.680618","sit down","1"
"90562934083766","3","-0.7181854","0.16255188","9.677017","sit down","1"
"90562954072780","3","-0.7157898","0.17332458","9.679413","sit down","1"
"90562974031276","3","-0.7265625","0.1661377","9.684204","sit down","1"
"90562994020290","3","-0.7121887","0.15536499","9.679413","sit down","1"
"90563013978786","3","-0.71698","0.15655518","9.685394","sit down","1"
"90563033967799","3","-0.71339417","0.15776062","9.677017","sit down","1"
"90563053956813","3","-0.7157898","0.16972351","9.683014","sit down","1"
"90563073945827","3","-0.7181854","0.16255188","9.665054","sit down","1"
"90563093904323","3","-0.71458435","0.16374207","9.683014","sit down","1"
"90563113893336","3","-0.7181854","0.17092896","9.683014","sit down","1"
"90563133851833","3","-0.7229614","0.16255188","9.7057495","sit down","1"
"90563153840846","3","-0.7193756","0.16972351","9.688995","sit down","1"
"90563173829860","3","-0.71099854","0.17332458","9.678223","sit down","1"
"90563193818874","3","-0.7277527","0.16374207","9.678223","sit down","1"
"90563213807887","3","-0.72895813","0.15296936","9.688995","sit down","1"
"90563233796901","3","-0.73135376","0.15776062","9.669846","sit down","1"
"90563253755397","3","-0.7205658","0.17092896","9.688995","sit down","1"
"90563273744411","3","-0.7181854","0.16494751","9.677017","sit down","1"
"90563293702907","3","-0.7277527","0.16374207","9.674622","sit down","1"
"90563313691920","3","-0.72895813","0.16494751","9.692581","sit down","1"
"90563333680934","3","-0.71458435","0.16972351","9.684204","sit down","1"
"90563353669948","3","-0.7157898","0.1589508","9.6866","sit down","1"
"90563373628444","3","-0.7121887","0.17451477","9.680618","sit down","1"
"90563393617458","3","-0.71698","0.16972351","9.692581","sit down","1"
"90563413575954","3","-0.7229614","0.1589508","9.692581","sit down","1"
"90563433564967","3","-0.72177124","0.15536499","9.694977","sit down","1"
"90563453523463","3","-0.7157898","0.1589508","9.683014","sit down","1"
"90563473542995","3","-0.7157898","0.16494751","9.681808","sit down","1"
"90563493532008","3","-0.73373413","0.15415955","9.690186","sit down","1"
"90563513521022","3","-0.72535706","0.15776062","9.675827","sit down","1"
"90563533479518","3","-0.7050171","0.16972351","9.650681","sit down","1"
"90563553468532","3","-0.7157898","0.16255188","9.672226","sit down","1"
"90563573427028","3","-0.7193756","0.16134644","9.708145","sit down","1"
"90563593416042","3","-0.7181854","0.17092896","9.693787","sit down","1"
"90563613405055","3","-0.7205658","0.15776062","9.632736","sit down","1"
"90563633394069","3","-0.72895813","0.17332458","9.715332","sit down","1"
"90563653352565","3","-0.7181854","0.17211914","9.696182","sit down","1"
"90563673341579","3","-0.72416687","0.16732788","9.661453","sit down","1"
"90563693300075","3","-0.7074127","0.17092896","9.712936","sit down","1"
"90563713289088","3","-0.74331665","0.17572021","9.710541","sit down","1"
"90563733278102","3","-0.7265625","0.17930603","9.643509","sit down","1"
"90563753267116","3","-0.7181854","0.16134644","9.66864","sit down","1"
"90563773256129","3","-0.74331665","0.16015625","9.738068","sit down","1"
"90563793245143","3","-0.73254395","0.1661377","9.637512","sit down","1"
"90563813203639","3","-0.73135376","0.19126892","9.514221","sit down","1"
"90563833192653","3","-0.7373352","0.16015625","9.684204","sit down","1"
"90563853151149","3","-0.756485","0.16134644","9.662659","sit down","1"
"90563873140163","3","-0.7660675","0.17930603","9.548935","sit down","1"
"90563893129176","3","-0.7373352","0.1661377","9.581253","sit down","1"
"90563913118190","3","-0.7516937","0.19007874","9.521393","sit down","1"
"90563933076686","3","-0.81274414","0.19366455","9.552521","sit down","1"
"90563953065700","3","-0.7876129","0.1481781","9.66745","sit down","1"
"90563973024196","3","-0.72416687","0.18528748","9.643509","sit down","1"
"90563993013210","3","-0.64634705","0.1769104","9.43042","sit down","1"
"90564013002223","3","-0.75408936","0.0284729","9.511826","sit down","1"
"90564032991237","3","-0.7086029","0.15415955","10.075653","sit down","1"
"90564052980251","3","-0.3949585","0.20922852","9.814682","sit down","1"
"90564072969264","3","-0.35665894","0.1374054","9.436401","sit down","1"
"90564092927760","3","-0.50749207","0.09790039","9.316696","sit down","1"
"90564112916774","3","-0.48594666","0.17451477","9.381332","sit down","1"
"90564132905788","3","-0.8438721","0.37322998","9.305923","sit down","1"
"90564152894801","3","-0.96836853","0.3840027","9.581253","sit down","1"
"90564172853297","3","-1.0653381","-0.11279297","9.803909","sit down","1"
"90564192842311","3","-1.3717957","0.072769165","9.933197","sit down","1"
"90564212800807","3","-1.4627686","0.16374207","9.814682","sit down","1"
"90564232789821","3","-1.4436188","0.0859375","9.890106","sit down","1"
"90564252748317","3","-1.5142517","-0.0038452148","9.890106","sit down","1"
"90564272737331","3","-1.6471252","0.012908936","9.959534","sit down","1"
"90564292726344","3","-1.5992432","-0.037368774","10.08284","sit down","1"
"90564312715358","3","-1.4065094","-0.063705444","10.024185","sit down","1"
"90564332704372","3","-1.3418732","-0.0038452148","9.831451","sit down","1"
"90564352693385","3","-1.3981323","0.03565979","9.742859","sit down","1"
"90564372651881","3","-1.3346863","0.024871826","9.727295","sit down","1"
"90564392640895","3","-1.1934357","0.01889038","9.651886","sit down","1"
"90564412629909","3","-1.103653","0.04522705","9.566895","sit down","1"
"90564432618922","3","-1.088089","0.075164795","9.572876","sit down","1"
"90564452577419","3","-1.0844879","0.077545166","9.551331","sit down","1"
"90564472566432","3","-1.05336","0.089523315","9.513016","sit down","1"
"90564492524928","3","-1.0581512","0.115859985","9.504639","sit down","1"
"90564512513942","3","-1.1072388","0.106277466","9.481888","sit down","1"
"90564532502956","3","-1.1347656","0.111068726","9.507034","sit down","1"
"90564552491969","3","-1.1383667","0.0859375","9.535767","sit down","1"
"90564572450465","3","-1.1132202","0.053604126","9.556122","sit down","1"
"90564592439479","3","-1.1228027","0.05960083","9.601608","sit down","1"
"90564612428493","3","-1.1946259","0.041641235","9.60878","sit down","1"
"90564632417506","3","-1.2604675","0.053604126","9.675827","sit down","1"
"90564652376003","3","-1.274826","0.05960083","9.7057495","sit down","1"
"90564672365016","3","-1.2927856","0.041641235","9.693787","sit down","1"
"90564692354030","3","-1.3370819","0.017700195","9.750046","sit down","1"
"90564712343044","3","-1.3382721","0.027267456","9.768005","sit down","1"
"90564732301540","3","-1.2999725","0.04522705","9.736877","sit down","1"
"90564752290553","3","-1.2975769","0.03804016","9.7452545","sit down","1"
"90564772249049","3","-1.2844086","0.02368164","9.734482","sit down","1"
"90564792238063","3","-1.226944","0.03326416","9.674622","sit down","1"
"90564812227077","3","-1.2197571","0.06199646","9.665054","sit down","1"
"90564832216090","3","-1.2125854","0.06199646","9.619568","sit down","1"
"90564852174586","3","-1.19104","0.06916809","9.638718","sit down","1"
"90564872163600","3","-1.1634979","0.06916809","9.604004","sit down","1"
"90564892152614","3","-1.1491394","0.094314575","9.571671","sit down","1"
"90564912141628","3","-1.1611023","0.07875061","9.580063","sit down","1"
"90564932130641","3","-1.1730804","0.082336426","9.580063","sit down","1"
"90564952119655","3","-1.1766663","0.07635498","9.596817","sit down","1"
"90564972078151","3","-1.1814575","0.07875061","9.592026","sit down","1"
"90564992068792","3","-1.1922302","0.053604126","9.60878","sit down","1"
"90565012027288","3","-1.2042084","0.05960083","9.633926","sit down","1"
"90565032016301","3","-1.2209625","0.060791016","9.648285","sit down","1"
"90565051974797","3","-1.2209625","0.055999756","9.655472","sit down","1"
"90565071963811","3","-1.2389221","0.063186646","9.657867","sit down","1"
"90565091952825","3","-1.2437134","0.055999756","9.66745","sit down","1"
"90565111941838","3","-1.2520905","0.048828125","9.68779","sit down","1"
"90565131900335","3","-1.2413177","0.05960083","9.680618","sit down","1"
"90565151889348","3","-1.2341309","0.05960083","9.679413","sit down","1"
"90565171878362","3","-1.2365265","0.05960083","9.662659","sit down","1"
"90565191867376","3","-1.2077942","0.05480957","9.642303","sit down","1"
"90565211856389","3","-1.2137756","0.072769165","9.633926","sit down","1"
"90565231845403","3","-1.2089844","0.07395935","9.60878","sit down","1"
"90565251803899","3","-1.2030029","0.060791016","9.623154","sit down","1"
"90565271792913","3","-1.1886444","0.058395386","9.625549","sit down","1"
"90565291751409","3","-1.187439","0.0572052","9.609985","sit down","1"
"90565311740422","3","-1.1850433","0.067977905","9.600403","sit down","1"
"90565331729436","3","-1.2053986","0.07635498","9.619568","sit down","1"
"90565351718450","3","-1.2257538","0.07635498","9.641113","sit down","1"
"90565371676946","3","-1.2065887","0.06199646","9.638718","sit down","1"
"90565391665960","3","-1.2125854","0.067977905","9.636322","sit down","1"
"90565411624456","3","-1.2293396","0.048828125","9.650681","sit down","1"
"90565431613469","3","-1.2161713","0.053604126","9.678223","sit down","1"
"90565451571965","3","-1.2293396","0.05001831","9.650681","sit down","1"
"90565471591497","3","-1.2245483","0.058395386","9.639908","sit down","1"
"90565491580510","3","-1.2317352","0.06437683","9.6662445","sit down","1"
"90565511569524","3","-1.2173767","0.06437683","9.662659","sit down","1"
"90565531528020","3","-1.2149811","0.077545166","9.644699","sit down","1"
"90565551517034","3","-1.2018127","0.06677246","9.644699","sit down","1"
"90565571475530","3","-1.1982117","0.065582275","9.651886","sit down","1"
"90565591464544","3","-1.2018127","0.07395935","9.645905","sit down","1"
"90565611453557","3","-1.2030029","0.065582275","9.635117","sit down","1"
"90565631442571","3","-1.2161713","0.06437683","9.6267395","sit down","1"
"90565651401067","3","-1.2042084","0.060791016","9.642303","sit down","1"
"90565671390081","3","-1.2077942","0.0572052","9.644699","sit down","1"
"90565691348577","3","-1.2209625","0.084732056","9.643509","sit down","1"
"90565711337590","3","-1.2137756","0.07395935","9.639908","sit down","1"
"90565731326604","3","-1.2197571","0.06199646","9.639908","sit down","1"
"90565751315618","3","-1.2042084","0.05960083","9.660263","sit down","1"
"90565771304631","3","-1.2101898","0.060791016","9.655472","sit down","1"
"90565791293645","3","-1.2293396","0.048828125","9.645905","sit down","1"
"90565811252141","3","-1.2137756","0.04522705","9.648285","sit down","1"
"90565831241155","3","-1.2245483","0.05001831","9.651886","sit down","1"
"90565851199651","3","-1.2221527","0.05480957","9.6662445","sit down","1"
"90565871188665","3","-1.2257538","0.06677246","9.648285","sit down","1"
"90565891177678","3","-1.226944","0.065582275","9.643509","sit down","1"
"90565911166692","3","-1.2065887","0.067977905","9.632736","sit down","1"
"90565931125188","3","-1.2006073","0.065582275","9.625549","sit down","1"
"90565951114202","3","-1.1946259","0.05241394","9.629135","sit down","1"
"90565971072698","3","-1.2065887","0.06437683","9.629135","sit down","1"
"90565991061712","3","-1.21138","0.07395935","9.627945","sit down","1"
"90566011050725","3","-1.1994171","0.067977905","9.630341","sit down","1"
"90566031039739","3","-1.2030029","0.05960083","9.635117","sit down","1"
"90566051028753","3","-1.2089844","0.058395386","9.632736","sit down","1"
"90566071017766","3","-1.2161713","0.072769165","9.647095","sit down","1"
"90566090976262","3","-1.2209625","0.075164795","9.647095","sit down","1"
"90566110965276","3","-1.2137756","0.065582275","9.648285","sit down","1"
"90566130954290","3","-1.2221527","0.06437683","9.663849","sit down","1"
"90566150943303","3","-1.226944","0.065582275","9.64949","sit down","1"
"90566170901799","3","-1.2185669","0.070373535","9.633926","sit down","1"
"90566190890813","3","-1.2221527","0.067977905","9.639908","sit down","1"
"90566210849309","3","-1.2185669","0.06199646","9.64949","sit down","1"
"90566230838323","3","-1.2209625","0.058395386","9.638718","sit down","1"
"90566250796819","3","-1.2149811","0.06437683","9.641113","sit down","1"
"90566270755315","3","-1.21138","0.0572052","9.638718","sit down","1"
"90566290713811","3","-1.21138","0.053604126","9.638718","sit down","1"
"90566310733342","3","-1.2137756","0.0572052","9.633926","sit down","1"
"90566330722356","3","-1.2077942","0.063186646","9.647095","sit down","1"
"90566350711370","3","-1.2149811","0.053604126","9.633926","sit down","1"
"90566370700383","3","-1.2101898","0.05960083","9.645905","sit down","1"
"90566390689397","3","-1.1982117","0.06677246","9.641113","sit down","1"
"90566410678411","3","-1.2101898","0.065582275","9.629135","sit down","1"
"90566430667424","3","-1.2125854","0.05960083","9.645905","sit down","1"
"90566450625921","3","-1.2077942","0.058395386","9.650681","sit down","1"
"90566470614934","3","-1.2137756","0.051208496","9.632736","sit down","1"
"90566490573430","3","-1.2185669","0.048828125","9.644699","sit down","1"
"90566510562444","3","-1.2389221","0.044036865","9.66745","sit down","1"
"90566530551458","3","-1.2245483","0.060791016","9.657867","sit down","1"
"90566550540471","3","-1.2245483","0.0572052","9.651886","sit down","1"
"90566570498967","3","-1.2137756","0.072769165","9.647095","sit down","1"
"90566590487981","3","-1.2185669","0.055999756","9.654282","sit down","1"
"90566610476995","3","-1.2185669","0.06437683","9.655472","sit down","1"
"90566630466008","3","-1.2149811","0.06677246","9.637512","sit down","1"
"90566650424505","3","-1.2209625","0.065582275","9.631531","sit down","1"
"90566670413518","3","-1.2209625","0.06677246","9.654282","sit down","1"
"90566690402532","3","-1.2065887","0.07395935","9.632736","sit down","1"
"90566710391546","3","-1.21138","0.058395386","9.645905","sit down","1"
"90566730350042","3","-1.2006073","0.060791016","9.645905","lay down","1"
"90566750339055","3","-1.2101898","0.053604126","9.639908","lay down","1"
"90566770297551","3","-1.2065887","0.05001831","9.641113","lay down","1"
"90566790286565","3","-1.230545","0.058395386","9.644699","lay down","1"
"90566810275579","3","-1.2245483","0.063186646","9.645905","lay down","1"
"90566830264592","3","-1.2149811","0.06916809","9.632736","lay down","1"
"90566850223088","3","-1.2065887","0.063186646","9.645905","lay down","1"
"90566870212102","3","-1.2137756","0.053604126","9.644699","lay down","1"
"90566890201116","3","-1.2245483","0.0572052","9.651886","lay down","1"
"90566910190130","3","-1.2185669","0.063186646","9.645905","lay down","1"
"90566930179143","3","-1.2173767","0.05480957","9.64949","lay down","1"
"90566950168157","3","-1.2161713","0.046432495","9.644699","lay down","1"
"90566970126653","3","-1.2006073","0.06437683","9.633926","lay down","1"
"90566990115667","3","-1.2018127","0.05960083","9.644699","lay down","1"
"90567010074163","3","-1.2173767","0.06437683","9.643509","lay down","1"
"90567030063176","3","-1.2065887","0.067977905","9.635117","lay down","1"
"90567050021672","3","-1.2233582","0.05960083","9.659073","lay down","1"
"90567070010686","3","-1.2125854","0.041641235","9.633926","lay down","1"
"90567089999700","3","-1.1970215","0.05001831","9.643509","lay down","1"
"90567109988713","3","-1.2077942","0.04762268","9.64949","lay down","1"
"90567129947210","3","-1.2137756","0.044036865","9.662659","lay down","1"
"90567149936223","3","-1.1970215","0.055999756","9.660263","lay down","1"
"90567169894719","3","-1.2173767","0.046432495","9.653076","lay down","1"
"90567189883733","3","-1.2257538","0.0572052","9.632736","lay down","1"
"90567209872747","3","-1.235321","0.03565979","9.643509","lay down","1"
"90567229861760","3","-1.2329254","0.046432495","9.659073","lay down","1"
"90567249850774","3","-1.2185669","0.051208496","9.641113","lay down","1"
"90567269839788","3","-1.2125854","0.065582275","9.654282","lay down","1"
"90567289798284","3","-1.2125854","0.063186646","9.653076","lay down","1"
"90567309756780","3","-1.2137756","0.0572052","9.674622","lay down","1"
"90567329715276","3","-1.2197571","0.05241394","9.653076","lay down","1"
"90567349704290","3","-1.2161713","0.060791016","9.621948","lay down","1"
"90567369693303","3","-1.235321","0.065582275","9.642303","lay down","1"
"90567389682317","3","-1.27005","0.065582275","9.635117","lay down","1"
"90567409671331","3","-1.2520905","0.0859375","9.654282","lay down","1"
"90567429660344","3","-1.2149811","0.11465454","9.571671","lay down","1"
"90567449618840","3","-1.1802673","0.15296936","9.576462","lay down","1"
"90567469638372","3","-1.147934","0.17451477","9.548935","lay down","1"
"90567489596868","3","-1.147934","0.123046875","9.620758","lay down","1"
"90567509585881","3","-1.2089844","0.22599792","9.718918","lay down","1"
"90567529574895","3","-1.2449036","0.22718811","9.604004","lay down","1"
"90567549563909","3","-1.3155365","0.10748291","9.621948","lay down","1"
"90567569522405","3","-1.3011627","0.041641235","9.831451","lay down","1"
"90567589511419","3","-1.2377167","0.06677246","9.703354","lay down","1"
"90567609469915","3","-1.3083496","0.08354187","9.605194","lay down","1"
"90567629458928","3","-1.2999725","0.18170166","9.738068","lay down","1"
"90567649447942","3","-1.1647034","0.016494751","9.651886","lay down","1"
"90567669436956","3","-1.266449","-0.13313293","9.697372","lay down","1"
"90567689395452","3","-1.2568817","-0.13552856","9.748856","lay down","1"
"90567709384465","3","-1.2053986","-0.1259613","9.602798","lay down","1"
"90567729342962","3","-1.1527252","-0.04814148","9.596817","lay down","1"
"90567749362493","3","-0.98513794","-0.16067505","9.52739","lay down","1"
"90567769351506","3","-1.2832031","-0.15109253","9.842224","lay down","1"
"90567789340520","3","-1.4113007","0.029663086","9.873352","lay down","1"
"90567809299016","3","-1.3239136","0.04522705","9.574066","lay down","1"
"90567829288030","3","-1.1982117","0.0284729","9.5429535","lay down","1"
"90567849246526","3","-1.156311","0.077545166","9.764404","lay down","1"
"90567869235540","3","-1.1419525","0.13861084","9.763214","lay down","1"
"90567889224553","3","-1.0234375","0.12663269","9.443588","lay down","1"
"90567909213567","3","-0.9264679","0.034454346","9.363388","lay down","1"
"90567929172063","3","-1.0150604","0.034454346","9.533371","lay down","1"
"90567949161077","3","-0.9755554","-0.012237549","9.631531","lay down","1"
"90567969119573","3","-0.9659729","-0.08885193","9.574066","lay down","1"
"90567989108587","3","-1.0234375","-0.06968689","9.618362","lay down","1"
"90568009097600","3","-0.9575958","0.04283142","9.609985","lay down","1"
"90568029086614","3","-0.9336548","0.13861084","9.576462","lay down","1"
"90568049075628","3","-1.1407623","0.08114624","9.613571","lay down","1"
"90568069064641","3","-1.3382721","-0.090042114","9.715332","lay down","1"
"90568089023137","3","-1.2736359","-0.2061615","9.724899","lay down","1"
"90568109012151","3","-1.1096344","-0.0062408447","9.632736","lay down","1"
"90568128970647","3","-1.1467438","0.07395935","9.535767","lay down","1"
"90568148959661","3","-1.361023","-0.08166504","9.781174","lay down","1"
"90568168948674","3","-1.3622131","-0.1199646","9.866165","lay down","1"
"90568188937688","3","-1.0665283","-0.1666565","9.694977","lay down","1"
"90568208896184","3","-0.92767334","-0.13552856","9.656677","lay down","1"
"90568228885198","3","-1.0138702","-0.037368774","9.557312","lay down","1"
"90568248843694","3","-1.1060333","-0.090042114","9.750046","lay down","1"
"90568268832708","3","-1.1108246","-0.070892334","9.704559","lay down","1"
"90568288821721","3","-1.0904846","-0.007446289","9.581253","lay down","1"
"90568308810735","3","-0.4165039","-0.32946777","8.818695","lay down","1"
"90568328799749","3","-0.19145203","-0.42164612","7.8322906","lay down","1"
"90568348788762","3","-2.945984","0.5300598","12.02095","lay down","1"
"90568368747258","3","-2.9962616","-0.20257568","13.077988","lay down","1"
"90568388736272","3","0.18443298","-0.89808655","6.9667816","lay down","1"
"90568408694768","3","-0.24533081","-0.6275482","7.1643066","lay down","1"
"90568428653264","3","-1.740509","0.27027893","11.852158","lay down","1"
"90568448642278","3","-1.408905","0.48576355","10.784348","lay down","1"
"90568468600774","3","-0.582901","-0.13194275","7.6228027","lay down","1"
"90568488589788","3","-0.8151398","-0.18701172","8.702576","lay down","1"
"90568508578801","3","-1.0270386","0.26908875","10.110367","lay down","1"
"90568528567815","3","-0.7086029","0.42710876","9.299942","lay down","1"
"90568548556829","3","-0.9121094","0.123046875","8.727722","lay down","1"
"90568568545842","3","-1.2413177","0.010513306","9.74765","lay down","1"
"90568588534856","3","-1.345459","-0.1953888","10.473099","lay down","1"
"90568608523870","3","-1.7261353","-0.44917297","10.209732","lay down","1"
"90568628512883","3","-1.9823151","-0.32946777","10.385712","lay down","1"
"90568648471380","3","-1.6555023","-0.23368835","10.139099","lay down","1"
"90568668460393","3","-1.1814575","-0.4300232","9.939194","lay down","1"
"90568688449407","3","-1.2197571","-0.43481445","9.706955","lay down","1"
"90568708438421","3","-1.1407623","-0.32826233","9.593231","lay down","1"
"90568728396917","3","-0.98153687","-0.24087524","9.546539","lay down","1"
"90568748355413","3","-0.95401","-0.121170044","9.5082245","lay down","1"
"90568768344426","3","-0.9240875","-0.12475586","9.426834","lay down","1"
"90568788333440","3","-1.1347656","-0.113983154","9.393311","lay down","1"
"90568808291936","3","-1.1922302","-0.07447815","9.516617","lay down","1"
"90568828280950","3","-1.0390015","-0.0026550293","9.390915","lay down","1"
"90568848269963","3","-0.99949646","-0.06251526","9.3526","lay down","1"
"90568868258977","3","-1.0449829","-0.16905212","9.572876","lay down","1"
"90568888217473","3","-1.1287842","-0.16067505","9.66864","lay down","1"
"90568908206487","3","-1.3047638","-0.07208252","9.768005","lay down","1"
"90568928195501","3","-1.4615784","-0.054122925","9.893692","lay down","1"
"90568948184514","3","-1.5202332","-0.09841919","9.896088","lay down","1"
"90568968173528","3","-1.4819336","-0.15827942","9.920029","lay down","1"
"90568988162542","3","-1.3777771","-0.15707397","9.787155","lay down","1"
"90569008121038","3","-1.2784271","-0.123565674","9.635117","lay down","1"
"90569028110051","3","-1.2245483","-0.10560608","9.548935","lay down","1"
"90569048068547","3","-1.1395569","-0.10560608","9.486679","lay down","1"
"90569068057561","3","-1.1228027","-0.12236023","9.422043","lay down","1"
"90569088016057","3","-1.1383667","-0.070892334","9.405273","lay down","1"
"90569108005071","3","-1.1108246","-0.015823364","9.422043","lay down","1"
"90569127994085","3","-1.151535","-0.032577515","9.536957","lay down","1"
"90569147983098","3","-1.1802673","-0.061309814","9.631531","lay down","1"
"90569167941594","3","-1.2401123","-0.054122925","9.68779","lay down","1"
"90569187930608","3","-1.2317352","-0.10321045","9.715332","lay down","1"
"90569207919622","3","-1.2341309","-0.14152527","9.738068","lay down","1"
"90569227908635","3","-1.2245483","-0.14750671","9.742859","lay down","1"
"90569247897649","3","-1.2389221","-0.15348816","9.709351","lay down","1"
"90569267886663","3","-1.1862488","-0.14511108","9.671036","lay down","1"
"90569287845159","3","-1.1922302","-0.1259613","9.672226","lay down","1"
"90569307834172","3","-1.1826477","-0.11756897","9.648285","lay down","1"
"90569327792669","3","-1.1467438","-0.121170044","9.639908","lay down","1"
"90569347781682","3","-1.1443481","-0.0864563","9.609985","lay down","1"
"90569367770696","3","-1.1623077","-0.075683594","9.594421","lay down","1"
"90569387759710","3","-1.1730804","-0.080459595","9.581253","lay down","1"
"90569407718206","3","-1.1886444","-0.09841919","9.596817","lay down","1"
"90569427707219","3","-1.1982117","-0.087646484","9.612381","lay down","1"
"90569447665715","3","-1.1970215","-0.09841919","9.631531","lay down","1"
"90569467654729","3","-1.2221527","-0.12954712","9.645905","lay down","1"
"90569487643743","3","-1.2161713","-0.13433838","9.650681","lay down","1"
"90569507632756","3","-1.2341309","-0.11756897","9.656677","lay down","1"
"90569527621770","3","-1.2341309","-0.10202026","9.674622","lay down","1"
"90569547610784","3","-1.2245483","-0.09362793","9.654282","lay down","1"
"90569567569280","3","-1.2233582","-0.092437744","9.64949","lay down","1"
"90569587558294","3","-1.1970215","-0.090042114","9.631531","lay down","1"
"90569607516790","3","-1.1742706","-0.092437744","9.602798","lay down","1"
"90569627505803","3","-1.167099","-0.0912323","9.594421","lay down","1"
"90569647494817","3","-1.1742706","-0.10202026","9.625549","lay down","1"
"90569667483831","3","-1.187439","-0.104400635","9.64949","lay down","1"
"90569687442327","3","-1.19104","-0.11039734","9.655472","lay down","1"
"90569707431340","3","-1.1970215","-0.123565674","9.662659","lay down","1"
"90569727389837","3","-1.2197571","-0.121170044","9.662659","lay down","1"
"90569747378850","3","-1.21138","-0.11756897","9.678223","lay down","1"
"90569767367864","3","-1.1934357","-0.11279297","9.663849","lay down","1"
"90569787356878","3","-1.2006073","-0.09841919","9.653076","lay down","1"
"90569807345891","3","-1.195816","-0.10321045","9.613571","lay down","1"
"90569827334905","3","-1.1970215","-0.10321045","9.620758","lay down","1"
"90569847293401","3","-1.2077942","-0.10202026","9.618362","lay down","1"
"90569867282415","3","-1.195816","-0.11756897","9.629135","lay down","1"
"90569887271428","3","-1.1982117","-0.10560608","9.627945","lay down","1"
"90569907260442","3","-1.1982117","-0.10321045","9.642303","lay down","1"
"90569927218938","3","-1.1970215","-0.10800171","9.651886","lay down","1"
"90569947207952","3","-1.1946259","-0.10800171","9.661453","lay down","1"
"90569967166448","3","-1.2042084","-0.104400635","9.650681","lay down","1"
"90569987155462","3","-1.1946259","-0.10560608","9.639908","lay down","1"
"90570007113958","3","-1.187439","-0.10800171","9.638718","lay down","1"
"90570027102971","3","-1.1946259","-0.116378784","9.651886","lay down","1"
"90570047091985","3","-1.19104","-0.116378784","9.637512","lay down","1"
"90570067080999","3","-1.1970215","-0.104400635","9.632736","lay down","1"
"90570087070012","3","-1.2006073","-0.099624634","9.614777","lay down","1"
"90570107059026","3","-1.2018127","-0.10081482","9.638718","lay down","1"
"90570127017522","3","-1.1922302","-0.10081482","9.647095","lay down","1"
"90570147006536","3","-1.2137756","-0.10560608","9.625549","lay down","1"
"90570166995549","3","-1.2065887","-0.106796265","9.639908","lay down","1"
"90570186984563","3","-1.1922302","-0.10560608","9.650681","lay down","1"
"90570206943059","3","-1.19104","-0.10800171","9.632736","lay down","1"
"90570226932073","3","-1.1946259","-0.11279297","9.644699","lay down","1"
"90570246890569","3","-1.2173767","-0.10800171","9.650681","lay down","1"
"90570266879583","3","-1.195816","-0.111587524","9.639908","lay down","1"
"90570286838079","3","-1.1946259","-0.10081482","9.645905","lay down","1"
"90570306827092","3","-1.1982117","-0.106796265","9.643509","lay down","1"
"90570326816106","3","-1.1994171","-0.113983154","9.647095","lay down","1"
"90570346805120","3","-1.2042084","-0.10321045","9.642303","lay down","1"
"90570366794133","3","-1.2089844","-0.12475586","9.631531","lay down","1"
"90570386783147","3","-1.187439","-0.12475586","9.638718","lay down","1"
"90570406741643","3","-1.1826477","-0.097229004","9.645905","lay down","1"
"90570426730657","3","-1.195816","-0.099624634","9.630341","lay down","1"
"90570446719671","3","-1.2101898","-0.1259613","9.643509","lay down","1"
"90570466678167","3","-1.1814575","-0.1199646","9.660263","lay down","1"
"90570486667180","3","-1.1994171","-0.12475586","9.639908","lay down","1"
"90570506656194","3","-1.2089844","-0.104400635","9.635117","lay down","1"
"90570526614690","3","-1.2018127","-0.0864563","9.633926","lay down","1"
"90570546603704","3","-1.1982117","-0.10800171","9.638718","lay down","1"
"90570566592717","3","-1.2018127","-0.1151886","9.623154","lay down","1"
"90570586581731","3","-1.1970215","-0.1199646","9.633926","lay down","1"
"90570606540227","3","-1.1946259","-0.10202026","9.643509","lay down","1"
"90570626529241","3","-1.2161713","-0.10081482","9.633926","lay down","1"
"90570646518255","3","-1.2030029","-0.118774414","9.648285","lay down","1"
"90570666507268","3","-1.2030029","-0.10202026","9.635117","lay down","1"
"90570686465764","3","-1.1994171","-0.106796265","9.635117","lay down","1"
"90570706454778","3","-1.2053986","-0.118774414","9.653076","lay down","1"
"90570726443792","3","-1.2065887","-0.104400635","9.645905","sit up","1"
"90570746432805","3","-1.2101898","-0.10560608","9.642303","sit up","1"
"90570766391301","3","-1.2030029","-0.113983154","9.637512","sit up","1"
"90570786380315","3","-1.2065887","-0.10560608","9.633926","sit up","1"
"90570806338811","3","-1.1982117","-0.116378784","9.639908","sit up","1"
"90570826327825","3","-1.1946259","-0.11039734","9.635117","sit up","1"
"90570846316838","3","-1.1934357","-0.10560608","9.642303","sit up","1"
"90570866305852","3","-1.2077942","-0.10202026","9.651886","sit up","1"
"90570886264348","3","-1.1946259","-0.10321045","9.629135","sit up","1"
"90570906253362","3","-1.195816","-0.11039734","9.6267395","sit up","1"
"90570926242376","3","-1.19104","-0.11039734","9.644699","sit up","1"
"90570946231389","3","-1.2089844","-0.118774414","9.651886","sit up","1"
"90570966220403","3","-1.2006073","-0.113983154","9.642303","sit up","1"
"90570986209417","3","-1.1922302","-0.1151886","9.64949","sit up","1"
"90571006167913","3","-1.1946259","-0.10560608","9.631531","sit up","1"
"90571026156926","3","-1.19104","-0.10202026","9.614777","sit up","1"
"90571046115422","3","-1.1802673","-0.10560608","9.605194","sit up","1"
"90571066104436","3","-1.1790619","-0.0912323","9.553726","sit up","1"
"90571086062932","3","-1.230545","-0.068496704","9.581253","sit up","1"
"90571106051946","3","-1.2257538","-0.06251526","9.51062","sit up","1"
"90571126040960","3","-1.1946259","-0.15588379","9.60759","sit up","1"
"90571146029973","3","-1.3071594","-0.13912964","9.806305","sit up","1"
"90571165988469","3","-1.3586273","-0.16784668","9.802719","sit up","1"
"90571185977483","3","-1.2125854","-0.20735168","9.642303","sit up","1"
"90571205966497","3","-1.1706848","-0.16307068","9.619568","sit up","1"
"90571225955510","3","-1.2257538","-0.11279297","9.744064","sit up","1"
"90571245944524","3","-1.2329254","-0.16186523","9.693787","sit up","1"
"90571265933538","3","-1.2341309","-0.18461609","9.64949","sit up","1"
"90571285892034","3","-1.2556763","-0.1594696","9.663849","sit up","1"
"90571305881047","3","-1.27005","-0.09841919","9.696182","sit up","1"
"90571325839544","3","-1.2604675","-0.109191895","9.637512","sit up","1"
"90571345828557","3","-1.1658936","-0.15229797","9.693787","sit up","1"
"90571365817571","3","-1.167099","-0.13673401","9.661453","sit up","1"
"90571385806585","3","-1.1599121","-0.12715149","9.66864","sit up","1"
"90571405765081","3","-1.1239929","-0.056518555","9.602798","sit up","1"
"90571425754094","3","-1.1383667","-0.032577515","9.481888","sit up","1"
"90571445712590","3","-1.0042877","-0.058914185","9.43042","sit up","1"
"90571465701604","3","-0.86901855","-0.008636475","9.267609","sit up","1"
"90571485690618","3","-0.9611969","-0.009841919","9.6064","sit up","1"
"90571505679631","3","-1.1934357","-0.16546631","9.82666","sit up","1"
"90571525668645","3","-1.1575165","-0.17982483","9.964325","sit up","1"
"90571545657659","3","-0.9635773","-0.121170044","9.735687","sit up","1"
"90571565616155","3","-1.1623077","-0.10081482","9.609985","sit up","1"
"90571585605169","3","-1.3586273","-0.073287964","9.560898","sit up","1"
"90571605563665","3","-1.314331","-0.10202026","9.615967","sit up","1"
"90571625552678","3","-1.2808228","-0.16905212","9.900879","sit up","1"
"90571645541692","3","-1.250885","-0.20376587","9.659073","sit up","1"
"90571665530706","3","-1.2233582","-0.19897461","9.335846","sit up","1"
"90571685489202","3","-1.3777771","-0.24806213","9.497452","sit up","1"
"90571705478215","3","-1.4292603","-0.30192566","9.684204","sit up","1"
"90571725436712","3","-1.1778717","-0.30911255","9.68779","sit up","1"
"90571745425725","3","-0.87020874","-0.35820007","9.518997","sit up","1"
"90571765414739","3","-1.0820923","-0.38453674","9.498657","sit up","1"
"90571785403753","3","-1.4735565","-0.14750671","9.841019","sit up","1"
"90571805392766","3","-1.2173767","-0.078063965","9.770401","sit up","1"
"90571825381780","3","-0.9731598","-0.1151886","9.645905","sit up","1"
"90571845340276","3","-1.1383667","-0.19180298","9.66745","sit up","1"
"90571865329290","3","-1.1994171","-0.24327087","9.801514","sit up","1"
"90571885287786","3","-1.1575165","-0.116378784","9.736877","sit up","1"
"90571905276799","3","-1.1108246","0.032058716","9.629135","sit up","1"
"90571925265813","3","-1.1180115","-0.037368774","9.484283","sit up","1"
"90571945224309","3","-1.2676544","-0.090042114","9.632736","sit up","1"
"90571965213323","3","-1.2736359","-0.092437744","9.710541","sit up","1"
"90571985202337","3","-1.1934357","0.016494751","9.505844","sit up","1"
"90572005160833","3","-1.0796967","0.0069274902","9.577667","sit up","1"
"90572025149846","3","-1.0306244","-0.15229797","9.556122","sit up","1"
"90572045108342","3","-1.1742706","-0.18580627","9.521393","sit up","1"
"90572065127874","3","-1.250885","-0.056518555","9.614777","sit up","1"
"90572085116887","3","-1.1611023","-0.03378296","9.677017","sit up","1"
