"Timestamp","Accuracy","Acceleration X","Acceleration Y","Acceleration Z","Label","Cycle"
"90772056545959","3","-1.6938171","-0.1486969","10.822647","none","0"
"90772076748596","3","-2.2935638","-0.054122925","11.166214","none","0"
"90772096981750","3","-0.5062866","0.79222107","9.115585","none","0"
"90772117214905","3","-0.13998413","0.53604126","9.396896","none","0"
"90772137448059","3","-1.1694794","0.3361206","9.973907","none","0"
"90772157681213","3","-0.8821869","0.5121002","9.393311","none","0"
"90772177914367","3","-0.6798706","0.45463562","9.891296","none","0"
"90772198147522","3","-0.8498535","0.41752625","9.7285","none","0"
"90772218380676","3","-0.8319092","0.49414062","9.497452","none","0"
"90772238613830","3","-0.77923584","0.44386292","9.776382","none","0"
"90772258846985","3","-0.80078125","0.46540833","9.661453","none","0"
"90772279049621","3","-0.8259125","0.45584106","9.6866","none","0"
"90772299282776","3","-0.81155396","0.44267273","9.700958","none","0"
"90772319515930","3","-0.8067627","0.46421814","9.632736","none","0"
"90772339779602","3","-0.8139496","0.46540833","9.723709","none","0"
"90772360012756","3","-0.8247223","0.46421814","9.703354","none","0"
"90772380245910","3","-0.8175354","0.44744873","9.669846","none","0"
"90772400479065","3","-0.80078125","0.45224","9.703354","none","0"
"90772420712219","3","-0.80796814","0.4630127","9.702164","none","0"
"90772440945373","3","-0.83309937","0.45584106","9.677017","none","0"
"90772461178528","3","-0.81993103","0.43069458","9.66745","none","0"
"90772481411682","3","-0.80436707","0.44267273","9.677017","none","0"
"90772501675354","3","-0.81274414","0.46061707","9.680618","none","0"
"90772521908508","3","-0.8247223","0.47857666","9.678223","none","0"
"90772542141662","3","-0.8103485","0.46661377","9.692581","none","0"
"90772562374817","3","-0.80796814","0.4402771","9.698563","none","0"
"90772582607971","3","-0.81993103","0.45224","9.662659","none","0"
"90772602841125","3","-0.82351685","0.46061707","9.66864","none","0"
"90772623104797","3","-0.8175354","0.45584106","9.684204","none","0"
"90772643337951","3","-0.8163452","0.45224","9.678223","none","0"
"90772663571106","3","-0.81874084","0.4630127","9.688995","none","0"
"90772683804260","3","-0.8211365","0.46661377","9.720123","none","0"
"90772704037414","3","-0.81993103","0.47019958","9.685394","none","0"
"90772724270569","3","-0.82232666","0.47499084","9.657867","none","0"
"90772744503723","3","-0.8067627","0.44984436","9.7057495","none","0"
"90772764736877","3","-0.81274414","0.4630127","9.685394","none","0"
"90772784970031","3","-0.82351685","0.4582367","9.653076","none","0"
"90772805203186","3","-0.82351685","0.4582367","9.638718","none","0"
"90772825436340","3","-0.82951355","0.46780396","9.678223","none","0"
"90772845669494","3","-0.8283081","0.47499084","9.758423","none","0"
"90772865902649","3","-0.8139496","0.43190002","9.692581","none","0"
"90772886135803","3","-0.82951355","0.4737854","9.60759","none","0"
"90772906399475","3","-0.8103485","0.46061707","9.696182","none","0"
"90772926632629","3","-0.81155396","0.44386292","9.730896","none","0"
"90772946865783","3","-0.8151398","0.47499084","9.638718","none","0"
"90772967098938","3","-0.8211365","0.47499084","9.663849","none","0"
"90772987332092","3","-0.8067627","0.4630127","9.712936","none","0"
"90773007565246","3","-0.81274414","0.4725952","9.678223","none","0"
"90773027798401","3","-0.7983856","0.44984436","9.651886","none","0"
"90773048031555","3","-0.82232666","0.46061707","9.656677","none","0"
"90773068295227","3","-0.8151398","0.45463562","9.717728","none","0"
"90773088528381","3","-0.80197144","0.45584106","9.675827","none","0"
"90773108761535","3","-0.8271179","0.47140503","9.656677","none","0"
"90773128994690","3","-0.8103485","0.45703125","9.7057495","none","0"
"90773149197326","3","-0.8283081","0.4630127","9.681808","none","0"
"90773169430481","3","-0.8163452","0.46421814","9.654282","none","0"
"90773189694153","3","-0.8175354","0.44386292","9.663849","none","0"
"90773209927307","3","-0.8031769","0.42590332","9.641113","none","0"
"90773230160461","3","-0.84866333","0.4797821","9.654282","none","0"
"90773250393615","3","-0.835495","0.53125","9.830246","none","0"
"90773270626770","3","-0.80436707","0.39598083","9.790741","none","0"
"90773290859924","3","-0.8103485","0.44625854","9.425629","none","0"
"90773311093078","3","-0.8247223","0.47499084","9.638718","none","0"
"90773331326233","3","-0.81874084","0.4187317","9.932007","none","0"
"90773351559387","3","-0.8175354","0.47857666","9.578857","none","0"
"90773371792541","3","-0.79000854","0.45703125","9.493866","none","0"
"90773392025696","3","-0.8259125","0.44267273","9.748856","none","0"
"90773412258850","3","-0.83309937","0.49534607","9.805115","none","0"
"90773432492004","3","-0.7947998","0.46061707","9.679413","none","0"
"90773452725158","3","-0.81274414","0.44984436","9.5477295","none","0"
"90773472958313","3","-0.8271179","0.45703125","9.735687","none","0"
"90773493221985","3","-0.8103485","0.43190002","9.814682","none","0"
"90773513455139","3","-0.8211365","0.4905548","9.572876","none","0"
"90773533688293","3","-0.8366852","0.46421814","9.655472","none","0"
"90773553921447","3","-0.82232666","0.45224","9.729691","none","0"
"90773574154602","3","-0.7995758","0.46421814","9.660263","none","0"
"90773594387756","3","-0.8139496","0.44984436","9.673431","none","0"
"90773614620910","3","-0.8283081","0.44625854","9.653076","none","0"
"90773634854065","3","-0.8211365","0.45942688","9.693787","none","0"
"90773655087219","3","-0.7995758","0.45344543","9.693787","none","0"
"90773675320373","3","-0.80796814","0.46540833","9.659073","none","0"
"90773695553528","3","-0.8247223","0.45224","9.673431","none","0"
"90773715786682","3","-0.8163452","0.45703125","9.693787","none","0"
"90773736019836","3","-0.8139496","0.43667603","9.68779","none","0"
"90773756252990","3","-0.82232666","0.44267273","9.677017","none","0"
"90773776516662","3","-0.8247223","0.4618225","9.659073","none","0"
"90773796749817","3","-0.81874084","0.49295044","9.677017","none","0"
"90773816982971","3","-0.8151398","0.46421814","9.715332","none","0"
"90773837216125","3","-0.81155396","0.45463562","9.64949","none","0"
"90773857449280","3","-0.8211365","0.43907166","9.654282","none","0"
"90773877682434","3","-0.8103485","0.46780396","9.679413","none","0"
"90773897915588","3","-0.82232666","0.4630127","9.688995","none","0"
"90773918179260","3","-0.81874084","0.4510498","9.663849","none","0"
"90773938412414","3","-0.82951355","0.44625854","9.675827","none","0"
"90773958645569","3","-0.8163452","0.46661377","9.693787","none","0"
"90773978878723","3","-0.8151398","0.44865417","9.678223","none","0"
"90773999111877","3","-0.81874084","0.44625854","9.638718","none","0"
"90774019345031","3","-0.83070374","0.47857666","9.665054","none","0"
"90774039578186","3","-0.8103485","0.44625854","9.7847595","none","0"
"90774059811340","3","-0.80197144","0.46540833","9.625549","none","0"
"90774080044494","3","-0.8103485","0.44625854","9.618362","none","0"
"90774100277649","3","-0.8175354","0.4342804","9.729691","none","0"
"90774120510803","3","-0.8067627","0.47019958","9.726105","none","0"
"90774140743957","3","-0.8091583","0.45463562","9.683014","none","0"
"90774161007629","3","-0.8103485","0.47019958","9.639908","none","0"
"90774181240783","3","-0.81874084","0.46780396","9.691391","none","0"
"90774201473938","3","-0.8139496","0.4330902","9.718918","none","0"
"90774221707092","3","-0.81274414","0.47140503","9.613571","none","0"
"90774241940246","3","-0.8031769","0.4809723","9.678223","none","0"
"90774262173401","3","-0.8103485","0.43667603","9.758423","none","0"
"90774282406555","3","-0.8151398","0.44625854","9.6267395","none","0"
"90774302639709","3","-0.8247223","0.44865417","9.681808","none","0"
"90774322872863","3","-0.8163452","0.4582367","9.718918","none","0"
"90774343106018","3","-0.81274414","0.46061707","9.698563","none","0"
"90774363339172","3","-0.8151398","0.46061707","9.644699","none","0"
"90774383572326","3","-0.82951355","0.4342804","9.677017","none","0"
"90774403805481","3","-0.83070374","0.4414673","9.678223","none","0"
"90774424038635","3","-0.8055725","0.46061707","9.633926","none","0"
"90774444271789","3","-0.8091583","0.45584106","9.671036","none","0"
"90774464504944","3","-0.8211365","0.46780396","9.709351","none","0"
"90774484738098","3","-0.81155396","0.44386292","9.740463","none","0"
"90774504971252","3","-0.8151398","0.4295044","9.638718","none","0"
"90774525204406","3","-0.8091583","0.4618225","9.64949","none","0"
"90774545437561","3","-0.8139496","0.44625854","9.758423","none","0"
"90774565670715","3","-0.8139496","0.45584106","9.6662445","none","0"
"90774585903869","3","-0.8271179","0.4630127","9.618362","none","0"
"90774606137024","3","-0.8163452","0.43788147","9.7057495","none","0"
"90774626400696","3","-0.8175354","0.4630127","9.708145","none","0"
"90774646633850","3","-0.8211365","0.47618103","9.659073","none","0"
"90774666867004","3","-0.80197144","0.44386292","9.674622","none","0"
"90774687100158","3","-0.8091583","0.43667603","9.690186","none","0"
"90774707333313","3","-0.8103485","0.45703125","9.66864","none","0"
"90774727566467","3","-0.8151398","0.48336792","9.651886","none","0"
"90774747799621","3","-0.82232666","0.46421814","9.6866","none","0"
"90774768032776","3","-0.81993103","0.44506836","9.66745","none","0"
"90774788265930","3","-0.80436707","0.44625854","9.661453","none","0"
"90774808499084","3","-0.8151398","0.4630127","9.691391","none","0"
"90774828732238","3","-0.8211365","0.4618225","9.692581","none","0"
"90774848965393","3","-0.81155396","0.44744873","9.657867","none","0"
"90774869198547","3","-0.8091583","0.45344543","9.678223","none","0"
"90774889431701","3","-0.81274414","0.45584106","9.697372","none","0"
"90774909695373","3","-0.81874084","0.48457336","9.683014","none","0"
"90774929928528","3","-0.8163452","0.4630127","9.685394","none","0"
"90774950161682","3","-0.81993103","0.44984436","9.662659","none","0"
"90774970394836","3","-0.8139496","0.4630127","9.671036","none","0"
"90774990627990","3","-0.8283081","0.47019958","9.685394","none","0"
"90775010874639","3","-0.8067627","0.45224","9.680618","none","0"
"90775031107793","3","-0.80796814","0.4725952","9.699768","none","0"
"90775051340947","3","-0.8163452","0.45703125","9.691391","none","0"
"90775071574102","3","-0.80796814","0.41633606","9.657867","none","0"
"90775091807256","3","-0.8366852","0.51808167","9.617172","none","0"
"90775112040410","3","-0.81874084","0.4330902","9.787155","none","0"
"90775132273565","3","-0.81874084","0.44865417","9.665054","none","0"
"90775152506719","3","-0.82951355","0.47738647","9.617172","none","0"
"90775172770391","3","-0.8031769","0.4187317","9.74765","none","0"
"90775193003545","3","-0.8103485","0.48695374","9.629135","none","0"
"90775213236699","3","-0.81274414","0.45224","9.673431","none","0"
"90775233469854","3","-0.8103485","0.44625854","9.68779","none","0"
"90775253703008","3","-0.835495","0.45344543","9.665054","none","0"
"90775273936162","3","-0.8055725","0.4690094","9.696182","none","0"
"90775294169316","3","-0.81155396","0.47618103","9.6662445","none","0"
"90775314402471","3","-0.8103485","0.4402771","9.660263","none","0"
"90775334635625","3","-0.8055725","0.44267273","9.692581","none","0"
"90775354868779","3","-0.81993103","0.46421814","9.6662445","none","0"
"90775375101934","3","-0.81874084","0.45463562","9.684204","none","0"
"90775395335088","3","-0.80796814","0.45463562","9.6662445","none","0"
"90775415568242","3","-0.79119873","0.46061707","9.661453","none","0"
"90775435801397","3","-0.8103485","0.44865417","9.700958","none","0"
"90775456034551","3","-0.8103485","0.44984436","9.675827","none","0"
"90775476267705","3","-0.80796814","0.45344543","9.679413","none","0"
"90775496531377","3","-0.81274414","0.44625854","9.697372","none","0"
"90775516764531","3","-0.8151398","0.46421814","9.691391","none","0"
"90775536997686","3","-0.7995758","0.45224","9.674622","none","0"
"90775557230840","3","-0.81155396","0.44506836","9.673431","none","0"
"90775577463994","3","-0.8067627","0.45942688","9.680618","none","0"
"90775597697149","3","-0.81274414","0.45942688","9.698563","none","0"
"90775617930303","3","-0.81155396","0.45224","9.681808","none","0"
"90775638163457","3","-0.81274414","0.44865417","9.669846","none","0"
"90775658396611","3","-0.7995758","0.45463562","9.684204","none","0"
"90775678629766","3","-0.8055725","0.4630127","9.690186","none","0"
"90775698862920","3","-0.8031769","0.45224","9.674622","none","0"
"90775719096074","3","-0.8091583","0.4582367","9.662659","none","0"
"90775739329229","3","-0.80796814","0.44865417","9.661453","none","0"
"90775759562383","3","-0.8139496","0.44625854","9.677017","none","0"
"90775779795537","3","-0.81155396","0.46540833","9.66745","none","0"
"90775800028691","3","-0.8139496","0.45344543","9.663849","none","0"
"90775820261846","3","-0.80436707","0.46061707","9.675827","none","0"
"90775840495000","3","-0.80796814","0.45584106","9.691391","none","0"
"90775860728154","3","-0.8175354","0.44984436","9.683014","none","0"
"90775880961309","3","-0.8103485","0.45584106","9.6662445","none","0"
"90775901194463","3","-0.7947998","0.44625854","9.673431","none","0"
"90775921427617","3","-0.80436707","0.45584106","9.692581","none","0"
"90775941660772","3","-0.81993103","0.47019958","9.672226","none","0"
"90775961893926","3","-0.80796814","0.4582367","9.66745","none","0"
"90775982127080","3","-0.8175354","0.45224","9.681808","none","0"
"90776002360234","3","-0.8211365","0.4618225","9.681808","none","0"
"90776022593389","3","-0.82232666","0.45344543","9.694977","sit down","0"
"90776042826543","3","-0.8091583","0.46780396","9.677017","sit down","0"
"90776063059697","3","-0.8151398","0.46540833","9.683014","sit down","0"
"90776083292852","3","-0.81274414","0.45703125","9.675827","sit down","0"
"90776103526006","3","-0.80796814","0.44865417","9.663849","sit down","0"
"90776123759160","3","-0.81155396","0.4618225","9.675827","sit down","0"
"90776143992315","3","-0.81274414","0.44984436","9.684204","sit down","0"
"90776164225469","3","-0.81874084","0.45584106","9.694977","sit down","0"
"90776184458623","3","-0.8055725","0.46540833","9.66745","sit down","0"
"90776204691777","3","-0.81993103","0.46061707","9.691391","sit down","0"
"90776224924932","3","-0.8151398","0.46061707","9.6662445","sit down","0"
"90776245158086","3","-0.82232666","0.45584106","9.684204","sit down","0"
"90776265391240","3","-0.82232666","0.45224","9.683014","sit down","0"
"90776285624395","3","-0.82951355","0.46421814","9.677017","sit down","0"
"90776305857549","3","-0.8139496","0.43548584","9.694977","sit down","0"
"90776326090703","3","-0.81274414","0.44865417","9.661453","sit down","0"
"90776346323857","3","-0.8067627","0.43788147","9.650681","sit down","0"
"90776366557012","3","-0.8163452","0.44267273","9.691391","sit down","0"
"90776386790166","3","-0.8151398","0.4618225","9.665054","sit down","0"
"90776407023320","3","-0.80197144","0.44625854","9.660263","sit down","0"
"90776427286992","3","-0.7947998","0.42829895","9.663849","sit down","0"
"90776447520147","3","-0.7995758","0.4618225","9.655472","sit down","0"
"90776467753301","3","-0.8091583","0.46780396","9.681808","sit down","0"
"90776487986455","3","-0.81874084","0.4582367","9.698563","sit down","0"
"90776508219609","3","-0.81274414","0.45703125","9.641113","sit down","0"
"90776528452764","3","-0.8091583","0.44267273","9.6662445","sit down","0"
"90776548685918","3","-0.8163452","0.45584106","9.669846","sit down","0"
"90776568919072","3","-0.81274414","0.46780396","9.6866","sit down","0"
"90776589152227","3","-0.8031769","0.44506836","9.691391","sit down","0"
"90776609385381","3","-0.8103485","0.45344543","9.663849","sit down","0"
"90776629618535","3","-0.81155396","0.4510498","9.684204","sit down","0"
"90776649851690","3","-0.8175354","0.46061707","9.672226","sit down","0"
"90776670084844","3","-0.8055725","0.45344543","9.66864","sit down","0"
"90776690317998","3","-0.80796814","0.45224","9.697372","sit down","0"
"90776710551152","3","-0.81874084","0.45344543","9.692581","sit down","0"
"90776730784307","3","-0.8211365","0.4582367","9.681808","sit down","0"
"90776751017461","3","-0.81874084","0.4630127","9.673431","sit down","0"
"90776771250615","3","-0.81993103","0.45703125","9.691391","sit down","0"
"90776791483770","3","-0.82351685","0.45703125","9.702164","sit down","0"
"90776811716924","3","-0.8163452","0.47019958","9.671036","sit down","0"
"90776831950078","3","-0.8163452","0.44506836","9.662659","sit down","0"
"90776852183232","3","-0.8031769","0.44744873","9.645905","sit down","0"
"90776872416387","3","-0.8103485","0.46780396","9.680618","sit down","0"
"90776892649541","3","-0.82351685","0.4630127","9.718918","sit down","0"
"90776912913213","3","-0.81155396","0.44984436","9.681808","sit down","0"
"90776933146367","3","-0.81274414","0.46780396","9.684204","sit down","0"
"90776953379522","3","-0.80078125","0.46540833","9.661453","sit down","0"
"90776973612676","3","-0.81155396","0.45463562","9.663849","sit down","0"
"90776993845830","3","-0.80197144","0.45584106","9.678223","sit down","0"
"90777014078984","3","-0.8103485","0.44506836","9.679413","sit down","0"
"90777034312139","3","-0.81993103","0.4582367","9.684204","sit down","0"
"90777054545293","3","-0.80796814","0.47019958","9.681808","sit down","0"
"90777074778447","3","-0.8211365","0.44625854","9.643509","sit down","0"
"90777095011602","3","-0.81874084","0.4582367","9.657867","sit down","0"
"90777115244756","3","-0.7983856","0.47499084","9.724899","sit down","0"
"90777135477910","3","-0.8175354","0.42710876","9.657867","sit down","0"
"90777155711065","3","-0.8175354","0.4630127","9.639908","sit down","0"
"90777175944219","3","-0.8151398","0.4809723","9.698563","sit down","0"
"90777196207891","3","-0.8390808","0.41513062","9.7057495","sit down","0"
"90777216441045","3","-0.8151398","0.46540833","9.604004","sit down","0"
"90777236674199","3","-0.8378906","0.4582367","9.613571","sit down","0"
"90777256907354","3","-0.83309937","0.4630127","9.629135","sit down","0"
"90777277140508","3","-0.8546448","0.48336792","9.648285","sit down","0"
"90777297373662","3","-0.8426819","0.44625854","9.654282","sit down","0"
"90777317606816","3","-0.8091583","0.49295044","9.518997","sit down","0"
"90777337839971","3","-0.84747314","0.45942688","9.58844","sit down","0"
"90777358073125","3","-0.82232666","0.43788147","9.660263","sit down","0"
"90777378306279","3","-0.8103485","0.47618103","9.636322","sit down","0"
"90777398539434","3","-0.8163452","0.45703125","9.632736","sit down","0"
"90777418772588","3","-0.80436707","0.42471313","9.522598","sit down","0"
"90777439005742","3","-0.75050354","0.44386292","9.521393","sit down","0"
"90777459238897","3","-0.84028625","0.42471313","9.922424","sit down","0"
"90777479472051","3","-0.72895813","0.44625854","9.775177","sit down","0"
"90777499705205","3","-0.6583252","0.46540833","9.492676","sit down","0"
"90777519938359","3","-0.6942444","0.4809723","9.601608","sit down","0"
"90777540171514","3","-0.76486206","0.4977417","9.532166","sit down","0"
"90777560435186","3","-0.7636719","0.45942688","9.188599","sit down","0"
"90777580668340","3","-0.94802856","0.50491333","9.467529","sit down","0"
"90777600901494","3","-1.2365265","0.40795898","9.711731","sit down","0"
"90777621134649","3","-1.2341309","0.25112915","9.946365","sit down","0"
"90777641367803","3","-1.1132202","0.1589508","9.872147","sit down","0"
"90777661600957","3","-1.05336","0.2523346","9.637512","sit down","0"
"90777681834111","3","-1.2149811","0.29901123","9.812302","sit down","0"
"90777702067266","3","-1.2796173","0.28344727","9.90567","sit down","0"
"90777722300420","3","-1.2496948","0.23316956","9.806305","sit down","0"
"90777742533574","3","-1.2688446","0.18649292","9.821869","sit down","0"
"90777762736211","3","-1.3957367","0.19366455","9.96553","sit down","0"
"90777782969365","3","-1.3274994","0.19966125","10.040939","sit down","0"
"90777803202520","3","-1.2101898","0.24633789","9.875748","sit down","0"
"90777823435674","3","-1.187439","0.2571106","9.7608185","sit down","0"
"90777843668828","3","-1.1299744","0.25112915","9.58963","sit down","0"
"90777863901982","3","-1.1060333","0.2930298","9.6267395","sit down","0"
"90777884135137","3","-1.0809021","0.31578064","9.598007","sit down","0"
"90777904368291","3","-1.1132202","0.33372498","9.521393","sit down","0"
"90777924601445","3","-1.0868835","0.33972168","9.6064","sit down","0"
"90777944834600","3","-1.0042877","0.33972168","9.511826","sit down","0"
"90777965067754","3","-1.0497742","0.34570312","9.517807","sit down","0"
"90777985300908","3","-1.0749207","0.35289","9.558502","sit down","0"
"90778005534063","3","-1.0401917","0.3540802","9.485489","sit down","0"
"90778025767217","3","-1.0629425","0.3828125","9.5477295","sit down","0"
"90778046000371","3","-1.0545654","0.3325348","9.552521","sit down","0"
"90778066233525","3","-1.0785065","0.26908875","9.584839","sit down","0"
"90778086466680","3","-1.1000519","0.34091187","9.660263","sit down","0"
"90778106699834","3","-1.1060333","0.2858429","9.704559","sit down","0"
"90778126932988","3","-1.1431427","0.29782104","9.647095","sit down","0"
"90778147166143","3","-1.1503296","0.28944397","9.660263","sit down","0"
"90778167399297","3","-1.1503296","0.23916626","9.773987","sit down","0"
"90778187632451","3","-1.1982117","0.26550293","9.700958","sit down","0"
"90778207865606","3","-1.1826477","0.23197937","9.736877","sit down","0"
"90778228098760","3","-1.1886444","0.25352478","9.768005","sit down","0"
"90778248331914","3","-1.1886444","0.26190186","9.751236","sit down","0"
"90778268565068","3","-1.187439","0.24993896","9.758423","sit down","0"
"90778288798223","3","-1.1730804","0.27867126","9.660263","sit down","0"
"90778309031377","3","-1.1599121","0.29063416","9.716522","sit down","0"
"90778329264531","3","-1.1168213","0.29421997","9.671036","sit down","0"
"90778349497686","3","-1.1096344","0.3073883","9.611176","sit down","0"
"90778369730840","3","-1.0976562","0.29901123","9.636322","sit down","0"
"90778389963994","3","-1.1024475","0.3038025","9.624344","sit down","0"
"90778410197149","3","-1.1024475","0.30140686","9.615967","sit down","0"
"90778430430303","3","-1.0952606","0.30619812","9.584839","sit down","0"
"90778450663457","3","-1.0988617","0.30140686","9.624344","sit down","0"
"90778470896611","3","-1.1000519","0.32295227","9.613571","sit down","0"
"90778491129766","3","-1.108429","0.29901123","9.620758","sit down","0"
"90778511362920","3","-1.1251984","0.28105164","9.633926","sit down","0"
"90778531596074","3","-1.1251984","0.28944397","9.663849","sit down","0"
"90778551829229","3","-1.127594","0.29782104","9.671036","sit down","0"
"90778572062383","3","-1.1228027","0.28344727","9.681808","sit down","0"
"90778592295537","3","-1.1395569","0.26669312","9.710541","sit down","0"
"90778612528691","3","-1.1335754","0.27027893","9.710541","sit down","0"
"90778632792363","3","-1.1395569","0.27388","9.690186","sit down","0"
"90778653025518","3","-1.1251984","0.28344727","9.684204","sit down","0"
"90778673258672","3","-1.1228027","0.2858429","9.679413","sit down","0"
"90778693491826","3","-1.1347656","0.28944397","9.673431","sit down","0"
"90778713724981","3","-1.1263885","0.28823853","9.660263","sit down","0"
"90778733958135","3","-1.1156158","0.2918396","9.641113","sit down","0"
"90778754191289","3","-1.1144257","0.28944397","9.632736","sit down","0"
"90778774424443","3","-1.0976562","0.30978394","9.631531","sit down","0"
"90778794657598","3","-1.1132202","0.29063416","9.647095","sit down","0"
"90778814890752","3","-1.1168213","0.2930298","9.595612","sit down","0"
"90778835123906","3","-1.1251984","0.29901123","9.653076","sit down","0"
"90778855357061","3","-1.1239929","0.29901123","9.648285","sit down","0"
"90778875590215","3","-1.1251984","0.27986145","9.627945","sit down","0"
"90778895823369","3","-1.1060333","0.2966156","9.644699","sit down","0"
"90778916056524","3","-1.1347656","0.27627563","9.696182","sit down","0"
"90778936289678","3","-1.1467438","0.28944397","9.654282","sit down","0"
"90778956522832","3","-1.1443481","0.29542542","9.683014","sit down","0"
"90778976755986","3","-1.1347656","0.27388","9.675827","sit down","0"
"90778996989141","3","-1.1407623","0.28225708","9.64949","sit down","0"
"90779017222295","3","-1.1108246","0.30021667","9.690186","sit down","0"
"90779037455449","3","-1.1347656","0.27986145","9.657867","sit down","0"
"90779057688604","3","-1.1168213","0.2846527","9.642303","sit down","0"
"90779077921758","3","-1.1347656","0.27746582","9.694977","sit down","0"
"90779098154912","3","-1.1251984","0.29421997","9.629135","sit down","0"
"90779118388066","3","-1.1180115","0.30978394","9.635117","sit down","0"
"90779138621221","3","-1.1096344","0.27627563","9.697372","sit down","0"
"90779158854375","3","-1.1299744","0.29782104","9.625549","sit down","0"
"90779179087529","3","-1.1024475","0.27867126","9.671036","sit down","0"
"90779199320684","3","-1.1048431","0.3073883","9.629135","sit down","0"
"90779219553838","3","-1.1347656","0.2858429","9.678223","sit down","0"
"90779239786992","3","-1.1215973","0.29063416","9.654282","sit down","0"
"90779260020147","3","-1.1239929","0.28704834","9.660263","sit down","0"
"90779280253301","3","-1.1311798","0.27148438","9.660263","sit down","0"
"90779300486455","3","-1.13237","0.28225708","9.650681","sit down","0"
"90779320719609","3","-1.1251984","0.28823853","9.660263","sit down","0"
"90779340952764","3","-1.1251984","0.27267456","9.677017","sit down","0"
"90779361185918","3","-1.1239929","0.27267456","9.6662445","sit down","0"
"90779381419072","3","-1.1371613","0.29782104","9.6662445","sit down","0"
"90779401652227","3","-1.1299744","0.30140686","9.665054","sit down","0"
"90779421885381","3","-1.1359711","0.28944397","9.657867","sit down","0"
"90779442118535","3","-1.1144257","0.27627563","9.651886","sit down","0"
"90779462351690","3","-1.1263885","0.2966156","9.660263","sit down","0"
"90779482584844","3","-1.1239929","0.28704834","9.66864","sit down","0"
"90779502817998","3","-1.1180115","0.27746582","9.655472","sit down","0"
"90779523051152","3","-1.1239929","0.27027893","9.648285","sit down","0"
"90779543284307","3","-1.1419525","0.2858429","9.642303","sit down","0"
"90779563517461","3","-1.1335754","0.31098938","9.680618","sit down","0"
"90779583750615","3","-1.1215973","0.27867126","9.663849","sit down","0"
"90779603983770","3","-1.1228027","0.28823853","9.639908","sit down","0"
"90779624216924","3","-1.1263885","0.28944397","9.690186","sit down","0"
"90779644450078","3","-1.1311798","0.2930298","9.66864","sit down","0"
"90779664683232","3","-1.1048431","0.3026123","9.617172","sit down","0"
"90779684916387","3","-1.1156158","0.24873352","9.68779","sit down","0"
"90779705149541","3","-1.1311798","0.29421997","9.624344","sit down","0"
"90779725382695","3","-1.1192017","0.2858429","9.685394","sit down","0"
"90779745615850","3","-1.1251984","0.30859375","9.636322","sit down","0"
"90779765849004","3","-1.1335754","0.27746582","9.657867","sit down","0"
"90779786082158","3","-1.1156158","0.28823853","9.641113","sit down","0"
"90779806315313","3","-1.1204071","0.29542542","9.645905","sit down","0"
"90779826548467","3","-1.1215973","0.29901123","9.671036","sit down","0"
"90779846781621","3","-1.1204071","0.2858429","9.678223","sit down","0"
"90779867014775","3","-1.108429","0.29063416","9.671036","sit down","0"
"90779887247930","3","-1.1204071","0.28704834","9.683014","sit down","0"
"90779907481084","3","-1.1180115","0.26669312","9.665054","sit down","0"
"90779927714238","3","-1.1239929","0.2846527","9.647095","sit down","0"
"90779947947393","3","-1.1132202","0.27867126","9.6866","sit down","0"
"90779968180547","3","-1.1383667","0.28944397","9.644699","sit down","0"
"90779988413701","3","-1.1539307","0.28823853","9.650681","sit down","0"
"90780008646856","3","-1.1156158","0.28225708","9.665054","sit down","0"
"90780028880010","3","-1.1228027","0.29063416","9.651886","lay down","0"
"90780049113164","3","-1.1263885","0.28704834","9.657867","lay down","0"
"90780069346318","3","-1.127594","0.2930298","9.660263","lay down","0"
"90780089579473","3","-1.1239929","0.29063416","9.651886","lay down","0"
"90780109812627","3","-1.1263885","0.28944397","9.64949","lay down","0"
"90780130045781","3","-1.1144257","0.28823853","9.655472","lay down","0"
"90780150278936","3","-1.1335754","0.29421997","9.657867","lay down","0"
"90780170512090","3","-1.1239929","0.28105164","9.672226","lay down","0"
"90780190745244","3","-1.1156158","0.28823853","9.6662445","lay down","0"
"90780210978399","3","-1.1144257","0.29542542","9.651886","lay down","0"
"90780231211553","3","-1.147934","0.28225708","9.653076","lay down","0"
"90780251444707","3","-1.1263885","0.29542542","9.662659","lay down","0"
"90780271677861","3","-1.1180115","0.28105164","9.671036","lay down","0"
"90780291911016","3","-1.1287842","0.27986145","9.651886","lay down","0"
"90780312144170","3","-1.1215973","0.2858429","9.66864","lay down","0"
"90780332377324","3","-1.1251984","0.2858429","9.662659","lay down","0"
"90780352610479","3","-1.1299744","0.28344727","9.651886","lay down","0"
"90780372843633","3","-1.1395569","0.27627563","9.675827","lay down","0"
"90780393076787","3","-1.1204071","0.3073883","9.671036","lay down","0"
"90780413309941","3","-1.13237","0.2918396","9.661453","lay down","0"
"90780433543096","3","-1.1215973","0.25950623","9.653076","lay down","0"
"90780453776250","3","-1.1192017","0.27746582","9.651886","lay down","0"
"90780474009404","3","-1.13237","0.29782104","9.681808","lay down","0"
"90780494242559","3","-1.1156158","0.28823853","9.66745","lay down","0"
"90780514475713","3","-1.1156158","0.2858429","9.627945","lay down","0"
"90780534708867","3","-1.1311798","0.27388","9.661453","lay down","0"
"90780554942022","3","-1.1467438","0.28344727","9.679413","lay down","0"
"90780575175176","3","-1.1395569","0.27627563","9.6866","lay down","0"
"90780595408330","3","-1.1335754","0.28823853","9.683014","lay down","0"
"90780615641484","3","-1.1251984","0.28823853","9.698563","lay down","0"
"90780635874639","3","-1.1144257","0.2930298","9.647095","lay down","0"
"90780656107793","3","-1.1192017","0.29421997","9.669846","lay down","0"
"90780676340947","3","-1.1347656","0.3038025","9.678223","lay down","0"
"90780696574102","3","-1.1108246","0.2918396","9.660263","lay down","0"
"90780716807256","3","-1.1024475","0.2631073","9.615967","lay down","0"
"90780737040410","3","-1.1215973","0.27746582","9.635117","lay down","0"
"90780757273565","3","-1.1251984","0.2750702","9.660263","lay down","0"
"90780777506719","3","-1.1192017","0.30021667","9.653076","lay down","0"
"90780797739873","3","-1.1000519","0.27867126","9.654282","lay down","0"
"90780817973027","3","-1.1228027","0.2642975","9.659073","lay down","0"
"90780838206182","3","-1.156311","0.28225708","9.639908","lay down","0"
"90780858439336","3","-1.1228027","0.28704834","9.64949","lay down","0"
"90780878672490","3","-1.1215973","0.30500793","9.655472","lay down","0"
"90780898905645","3","-1.151535","0.2966156","9.68779","lay down","0"
"90780919138799","3","-1.1443481","0.27986145","9.6662445","lay down","0"
"90780939371953","3","-1.1503296","0.29901123","9.678223","lay down","0"
"90780959605107","3","-1.1299744","0.32774353","9.706955","lay down","0"
"90780979838262","3","-1.1204071","0.32894897","9.672226","lay down","0"
"90781000071416","3","-1.1215973","0.31098938","9.642303","lay down","0"
"90781020304570","3","-1.1108246","0.32295227","9.656677","lay down","0"
"90781040537725","3","-1.1335754","0.31217957","9.629135","lay down","0"
"90781060770879","3","-1.1204071","0.27267456","9.669846","lay down","0"
"90781081004033","3","-1.103653","0.23916626","9.680618","lay down","0"
"90781101237188","3","-1.0809021","0.2451477","9.6866","lay down","0"
"90781121470342","3","-1.1096344","0.27267456","9.629135","lay down","0"
"90781141703496","3","-1.1539307","0.26908875","9.685394","lay down","0"
"90781161936650","3","-1.1096344","0.27388","9.724899","lay down","0"
"90781182169805","3","-1.11203","0.2750702","9.548935","lay down","0"
"90781202402959","3","-1.2556763","0.22599792","9.681808","lay down","0"
"90781222666631","3","-1.1922302","0.27267456","9.833847","lay down","0"
"90781242899785","3","-1.21138","0.21162415","9.678223","lay down","0"
"90781263132940","3","-1.1251984","0.20205688","9.660263","lay down","0"
"90781283366094","3","-1.0066833","0.15655518","9.690186","lay down","0"
"90781303599248","3","-1.0282288","0.18409729","9.748856","lay down","0"
"90781323832402","3","-1.0665283","0.2164154","9.6866","lay down","0"
"90781344065557","3","-1.0366058","0.24993896","9.598007","lay down","0"
"90781364298711","3","-1.0832977","0.23077393","9.58844","lay down","0"
"90781384531865","3","-1.1838531","0.15177917","9.673431","lay down","0"
"90781404765020","3","-1.1551208","0.18409729","9.748856","lay down","0"
"90781424998174","3","-1.1108246","0.34809875","9.602798","lay down","0"
"90781445231328","3","-1.1862488","0.41752625","9.594421","lay down","0"
"90781465464482","3","-1.0809021","0.3433075","9.52858","lay down","0"
"90781485697637","3","-0.9121094","0.28344727","9.507034","lay down","0"
"90781505930791","3","-1.0066833","0.17811584","9.751236","lay down","0"
"90781526163945","3","-1.1287842","0.060791016","9.88652","lay down","0"
"90781546397100","3","-1.1527252","0.20803833","9.776382","lay down","0"
"90781566630254","3","-1.0809021","0.27627563","9.663849","lay down","0"
"90781586863408","3","-1.017456","0.19126892","9.739273","lay down","0"
"90781607096563","3","-1.1359711","0.106277466","9.74646","lay down","0"
"90781627329717","3","-1.1778717","0.072769165","9.757233","lay down","0"
"90781647562871","3","-1.103653","0.16374207","9.685394","lay down","0"
"90781667796025","3","-1.0701294","0.2451477","9.593231","lay down","0"
"90781688029180","3","-0.98513794","0.30021667","9.540558","lay down","0"
"90781708262334","3","-0.9324646","0.25473022","9.418442","lay down","0"
"90781728495488","3","-0.9468231","0.20683289","9.544144","lay down","0"
"90781748728643","3","-0.8546448","0.29421997","9.592026","lay down","0"
"90781768992315","3","-0.78282166","0.46540833","9.457947","lay down","0"
"90781789225469","3","-0.835495","0.37683105","9.382538","lay down","0"
"90781809458623","3","-0.95280457","0.24993896","9.49147","lay down","0"
"90781829691777","3","-1.024643","0.25473022","9.675827","lay down","0"
"90781849924932","3","-0.97795105","0.27388","9.633926","lay down","0"
"90781870158086","3","-0.95401","0.32176208","9.56929","lay down","0"
"90781890391240","3","-0.35305786","-0.32347107","8.704971","lay down","0"
"90781910624395","3","-1.1886444","-0.28875732","8.241699","lay down","0"
"90781930888066","3","-2.7089539","0.72758484","14.063202","lay down","0"
"90781951121221","3","-1.4424286","0.16972351","9.383728","lay down","0"
"90781971354375","3","-0.7947998","-0.20974731","7.728134","lay down","0"
"90781991587529","3","-1.7812042","-0.23249817","10.434784","lay down","0"
"90782011820684","3","-0.7983856","-0.3438263","10.35817","lay down","0"
"90782032053838","3","-0.8366852","0.1374054","9.908066","lay down","0"
"90782052286992","3","-1.839859","0.922699","10.107971","lay down","0"
"90782072520147","3","-1.5322113","0.61146545","10.051712","lay down","0"
"90782092753301","3","-0.5398102","0.06199646","9.331055","lay down","0"
"90782112894902","3","-0.701416","0.09550476","9.390915","lay down","0"
"90782132944951","3","-1.1395569","0.32774353","9.835037","lay down","0"
"90782152933965","3","-1.0737152","0.3612671","9.586044","lay down","0"
"90782172892461","3","-0.9348602","0.52645874","9.454361","lay down","0"
"90782192850957","3","-1.0713196","0.4510498","9.255646","lay down","0"
"90782212809453","3","-1.2413177","0.32655334","9.7285","lay down","0"
"90782232767949","3","-1.1982117","0.47499084","9.787155","lay down","0"
"90782252726445","3","-1.0042877","0.5396271","9.325073","lay down","0"
"90782272715459","3","-1.3729858","0.4402771","9.362183","lay down","0"
"90782292673955","3","-1.6519165","0.41033936","9.82547","lay down","0"
"90782312662969","3","-1.2460938","0.31817627","9.76561","lay down","0"
"90782332651982","3","-1.0366058","0.24394226","9.334656","lay down","0"
"90782352640996","3","-0.9037323","0.38879395","9.344223","lay down","0"
"90782372630010","3","-0.93963623","0.29063416","9.425629","lay down","0"
"90782392619024","3","-1.0366058","0.23197937","9.657867","lay down","0"
"90782412577520","3","-0.8714142","0.4582367","9.205368","lay down","0"
"90782432566533","3","-0.5972748","0.45942688","8.9587555","lay down","0"
"90782452525029","3","-0.5936737","0.2523346","10.230087","lay down","0"
"90782472514043","3","0.37358093","0.42829895","10.246841","lay down","0"
"90782492503057","3","0.04437256","0.10987854","8.910873","lay down","0"
"90782512461553","3","-1.5884705","0.008117676","9.84581","lay down","0"
"90782532450566","3","-1.7704315","0.087127686","10.030167","lay down","0"
"90782552439580","3","-1.0354156","0.012908936","9.060516","lay down","0"
"90782572398076","3","-1.3789825","-0.12954712","9.097626","lay down","0"
"90782592387090","3","-2.3210907","-0.04095459","10.659836","lay down","0"
"90782612376104","3","-2.167862","-0.28875732","10.707733","lay down","0"
"90782632365117","3","-1.5178375","-0.27200317","9.426834","lay down","0"
"90782652354131","3","-1.701004","0.19126892","9.805115","lay down","0"
"90782672343145","3","-1.4543915","0.28944397","9.967911","lay down","0"
"90782692301641","3","-1.048584","0.31697083","9.612381","lay down","0"
"90782712290654","3","-1.0162506","0.3540802","9.520203","lay down","0"
"90782732279668","3","-1.017456","0.28105164","9.444778","lay down","0"
"90782752238164","3","-1.0270386","0.30500793","9.535767","lay down","0"
"90782772227178","3","-1.0713196","0.29063416","9.505844","lay down","0"
"90782792216191","3","-1.1455383","0.19487","9.477112","lay down","0"
"90782812174688","3","-1.1467438","0.108673096","9.457947","lay down","0"
"90782832163701","3","-1.235321","0.22479248","9.711731","lay down","0"
"90782852122197","3","-1.3119354","0.25473022","9.647095","lay down","0"
"90782872111211","3","-1.3837738","0.123046875","9.643509","lay down","0"
"90782892100225","3","-1.3478546","0.051208496","9.714127","lay down","0"
"90782912058721","3","-1.2281494","0.053604126","9.706955","lay down","0"
"90782932047734","3","-1.2377167","0.022491455","9.74765","lay down","0"
"90782952036748","3","-1.3035583","0.02607727","9.704559","lay down","0"
"90782972025762","3","-1.3011627","0.029663086","9.690186","lay down","0"
"90782992014775","3","-1.27005","0.017700195","9.741669","lay down","0"
"90783012003789","3","-1.2484894","0.079940796","9.68779","lay down","0"
"90783031931768","3","-1.2221527","0.12663269","9.578857","lay down","0"
"90783051920781","3","-1.2185669","0.13142395","9.594421","lay down","0"
"90783071909795","3","-1.1682892","0.0859375","9.602798","lay down","0"
"90783091898809","3","-1.1371613","0.0907135","9.546539","lay down","0"
"90783111857305","3","-1.1251984","0.12423706","9.524994","lay down","0"
"90783131846318","3","-1.1551208","0.13500977","9.538162","lay down","0"
"90783151804815","3","-1.2089844","0.1481781","9.612381","lay down","0"
"90783171793828","3","-1.2329254","0.13381958","9.636322","lay down","0"
"90783191782842","3","-1.266449","0.11227417","9.636322","lay down","0"
"90783211771856","3","-1.2832031","0.094314575","9.672226","lay down","0"
"90783231760869","3","-1.2951813","0.096710205","9.704559","lay down","0"
"90783251749883","3","-1.2975769","0.10029602","9.724899","lay down","0"
"90783271708379","3","-1.2963715","0.118255615","9.685394","lay down","0"
"90783291697393","3","-1.3083496","0.10508728","9.702164","lay down","0"
"90783311655889","3","-1.2676544","0.11705017","9.691391","lay down","0"
"90783331644902","3","-1.2556763","0.1194458","9.642303","lay down","0"
"90783351633916","3","-1.2401123","0.1194458","9.6267395","lay down","0"
"90783371592412","3","-1.2257538","0.1302185","9.602798","lay down","0"
"90783391581426","3","-1.2101898","0.12663269","9.619568","lay down","0"
"90783411570440","3","-1.2185669","0.13980103","9.601608","lay down","0"
"90783431528936","3","-1.2257538","0.115859985","9.60878","lay down","0"
"90783451517949","3","-1.2317352","0.10748291","9.609985","lay down","0"
"90783471506963","3","-1.2377167","0.101486206","9.632736","lay down","0"
"90783491495977","3","-1.2496948","0.0907135","9.669846","lay down","0"
"90783511484990","3","-1.2592621","0.0859375","9.661453","lay down","0"
"90783531474004","3","-1.2688446","0.0907135","9.645905","lay down","0"
"90783551432500","3","-1.250885","0.10029602","9.661453","lay down","0"
"90783571421514","3","-1.2449036","0.108673096","9.656677","lay down","0"
"90783591380010","3","-1.2484894","0.10987854","9.648285","lay down","0"
"90783611369024","3","-1.2425079","0.11465454","9.639908","lay down","0"
"90783631358037","3","-1.2520905","0.09550476","9.639908","lay down","0"
"90783651347051","3","-1.2365265","0.11227417","9.624344","lay down","0"
"90783671305547","3","-1.2293396","0.12902832","9.621948","lay down","0"
"90783691294561","3","-1.2425079","0.12184143","9.630341","lay down","0"
"90783711253057","3","-1.2365265","0.12663269","9.643509","lay down","0"
"90783731242070","3","-1.2401123","0.118255615","9.655472","lay down","0"
"90783751231084","3","-1.2425079","0.103881836","9.657867","lay down","0"
"90783771189580","3","-1.2496948","0.099105835","9.647095","lay down","0"
"90783791178594","3","-1.2568817","0.09790039","9.648285","lay down","0"
"90783811167607","3","-1.2640533","0.10269165","9.654282","lay down","0"
"90783831156621","3","-1.2484894","0.101486206","9.643509","lay down","0"
"90783851145635","3","-1.2389221","0.10748291","9.641113","lay down","0"
"90783871134649","3","-1.2449036","0.09310913","9.643509","lay down","0"
"90783891093145","3","-1.2413177","0.10269165","9.633926","lay down","0"
"90783911082158","3","-1.226944","0.12184143","9.629135","lay down","0"
"90783931071172","3","-1.2449036","0.09550476","9.644699","lay down","0"
"90783951029668","3","-1.2580719","0.10748291","9.627945","lay down","0"
"90783970988164","3","-1.2460938","0.11227417","9.629135","lay down","0"
"90783990977178","3","-1.2377167","0.12423706","9.631531","lay down","0"
"90784010966191","3","-1.2317352","0.11705017","9.64949","sit up","0"
"90784030955205","3","-1.2365265","0.096710205","9.64949","sit up","0"
"90784050944219","3","-1.250885","0.094314575","9.642303","sit up","0"
"90784070933232","3","-1.266449","0.096710205","9.659073","sit up","0"
"90784090922246","3","-1.2413177","0.11705017","9.631531","sit up","0"
"90784110880742","3","-1.2460938","0.10269165","9.641113","sit up","0"
"90784130869756","3","-1.2532806","0.101486206","9.654282","sit up","0"
"90784150858770","3","-1.2472992","0.113464355","9.636322","sit up","0"
"90784170817266","3","-1.250885","0.11465454","9.633926","sit up","0"
"90784190806279","3","-1.2472992","0.12663269","9.624344","sit up","0"
"90784210795293","3","-1.2449036","0.10748291","9.647095","sit up","0"
"90784230753789","3","-1.2484894","0.11465454","9.645905","sit up","0"
"90784250742803","3","-1.2520905","0.113464355","9.647095","sit up","0"
"90784270731816","3","-1.2460938","0.111068726","9.638718","sit up","0"
"90784290690313","3","-1.2580719","0.12423706","9.64949","sit up","0"
"90784310679326","3","-1.2544861","0.10269165","9.645905","sit up","0"
"90784330668340","3","-1.2556763","0.10508728","9.655472","sit up","0"
"90784350657354","3","-1.2544861","0.10029602","9.650681","sit up","0"
"90784370646367","3","-1.250885","0.10508728","9.651886","sit up","0"
"90784390635381","3","-1.2532806","0.101486206","9.64949","sit up","0"
"90784410593877","3","-1.2472992","0.10987854","9.642303","sit up","0"
"90784430582891","3","-1.2472992","0.10748291","9.656677","sit up","0"
"90784450541387","3","-1.2496948","0.103881836","9.637512","sit up","0"
"90784470530400","3","-1.250885","0.113464355","9.638718","sit up","0"
"90784490519414","3","-1.2389221","0.11465454","9.655472","sit up","0"
"90784510477910","3","-1.2401123","0.120651245","9.656677","sit up","0"
"90784530466924","3","-1.2377167","0.11465454","9.641113","sit up","0"
"90784550455938","3","-1.2413177","0.09790039","9.632736","sit up","0"
"90784570414434","3","-1.2580719","0.10029602","9.637512","sit up","0"
"90784590403447","3","-1.2616577","0.103881836","9.653076","sit up","0"
"90784610392461","3","-1.2520905","0.089523315","9.700958","sit up","0"
"90784630350957","3","-1.2604675","0.07875061","9.685394","sit up","0"
"90784650339971","3","-1.2796173","0.12423706","9.625549","sit up","0"
"90784670328984","3","-1.2652588","0.10508728","9.656677","sit up","0"
"90784690317998","3","-1.2293396","0.103881836","9.6662445","sit up","0"
"90784710307012","3","-1.2341309","0.118255615","9.636322","sit up","0"
"90784730296025","3","-1.2532806","0.14219666","9.650681","sit up","0"
"90784750254522","3","-1.2676544","0.13980103","9.627945","sit up","0"
"90784770243535","3","-1.2604675","0.12663269","9.663849","sit up","0"
"90784790232549","3","-1.1994171","0.070373535","9.625549","sit up","0"
"90784810191045","3","-1.2209625","0.08354187","9.620758","sit up","0"
"90784830180059","3","-1.2365265","0.13980103","9.639908","sit up","0"
"90784850138555","3","-1.1706848","0.1194458","9.638718","sit up","0"
"90784870127568","3","-1.2221527","0.16972351","9.604004","sit up","0"
"90784890116582","3","-1.2820129","0.16494751","9.64949","sit up","0"
"90784910075078","3","-1.2592621","0.13500977","9.678223","sit up","0"
"90784930064092","3","-1.2197571","0.123046875","9.66864","sit up","0"
"90784950053106","3","-1.2077942","0.120651245","9.662659","sit up","0"
"90784970042119","3","-1.2018127","0.12184143","9.659073","sit up","0"
"90784990031133","3","-1.195816","0.10748291","9.605194","sit up","0"
"90785009993480","3","-1.2796173","0.12423706","9.594421","sit up","0"
"90785029951976","3","-1.235321","0.11705017","9.654282","sit up","0"
"90785049940989","3","-1.1994171","0.120651245","9.550125","sit up","0"
"90785069930003","3","-1.3885498","0.11227417","9.577667","sit up","0"
"90785089888499","3","-1.3837738","0.079940796","9.744064","sit up","0"
"90785109877513","3","-1.068924","0.13381958","9.671036","sit up","0"
"90785129866526","3","-1.0964661","0.14938354","9.492676","sit up","0"
"90785149825023","3","-1.2030029","0.1194458","9.66864","sit up","0"
"90785169814036","3","-1.1108246","0.08833313","9.733292","sit up","0"
"90785189803050","3","-0.94802856","0.13500977","9.717728","sit up","0"
"90785209792064","3","-1.0521698","0.103881836","9.702164","sit up","0"
"90785229781077","3","-1.3167267","0.07635498","9.824265","sit up","0"
"90785249739573","3","-1.3550415","0.14219666","9.783569","sit up","0"
"90785269728587","3","-1.27005","0.1374054","9.722519","sit up","0"
"90785289717601","3","-1.2185669","0.13261414","9.700958","sit up","0"
"90785309676097","3","-1.2365265","0.22599792","9.726105","sit up","0"
"90785329665110","3","-1.2329254","0.24156189","9.661453","sit up","0"
"90785349654124","3","-1.2389221","0.22479248","9.577667","sit up","0"
"90785369612620","3","-1.0413971","0.2559204","9.51062","sit up","0"
"90785389601634","3","-1.0210419","0.21162415","9.454361","sit up","0"
"90785409590648","3","-1.0401917","0.20205688","9.529785","sit up","0"
"90785429549144","3","-1.0677338","0.21282959","9.5034485","sit up","0"
"90785449538157","3","-1.1862488","0.22479248","9.724899","sit up","0"
"90785469496653","3","-0.9635773","0.18049622","9.556122","sit up","0"
"90785489485667","3","-1.0856934","0.106277466","9.4483795","sit up","0"
"90785509474681","3","-1.4472198","0.05001831","9.661453","sit up","0"
"90785529463694","3","-1.4124908","0.12184143","9.625549","sit up","0"
"90785549452708","3","-1.1862488","0.17572021","9.663849","sit up","0"
"90785569411204","3","-1.0593567","0.21522522","9.843414","sit up","0"
"90785589400218","3","-0.8534546","0.22718811","9.648285","sit up","0"
"90785609389232","3","-0.8450775","0.16732788","9.540558","sit up","0"
"90785629378245","3","-1.1096344","0.10269165","9.655472","sit up","0"
"90785649336741","3","-1.3227081","0.1374054","9.759628","sit up","0"
"90785669295237","3","-1.2820129","0.13500977","9.671036","sit up","0"
"90785689253733","3","-1.2879944","0.13381958","9.590836","sit up","0"
"90785709242747","3","-1.3287048","0.18649292","9.644699","sit up","0"
"90785729231761","3","-1.1431427","0.15776062","9.571671","sit up","0"
"90785749220774","3","-1.0102692","0.118255615","9.536957","sit up","0"
"90785769179271","3","-0.99949646","0.1481781","9.806305","sit up","0"
"90785789198802","3","-1.0210419","0.13261414","9.803909","sit up","0"
"90785809187815","3","-1.1048431","0.21760559","9.581253","sit up","0"
"90785829176829","3","-1.2389221","0.2966156","9.581253","sit up","0"
"90785849165843","3","-1.3370819","0.094314575","9.809906","sit up","0"
"90785869124339","3","-1.2472992","-0.02659607","9.602798","sit up","0"
"90785889113353","3","-1.44841","0.06916809","9.692581","sit up","0"
"90785909102366","3","-1.4220734","0.15177917","9.969116","sit up","0"
"90785929091380","3","-1.1611023","0.065582275","9.769196","sit up","0"
"90785949049876","3","-1.2137756","0.14219666","9.691391","sit up","0"
"90785969038890","3","-1.250885","0.20443726","9.733292","sit up","0"
"90785988997386","3","-1.3155365","0.13861084","9.581253","sit up","0"
"90786008986399","3","-1.1970215","0.18289185","9.821869","sit up","0"
"90786028975413","3","-0.94802856","0.12782288","9.648285","sit up","0"
"90786048933909","3","-0.95401","0.048828125","9.562103","sit up","0"
"90786068922923","3","-1.0581512","0.084732056","9.563293","sit up","0"
"90786088911937","3","-1.1132202","0.18409729","9.548935","sit up","0"
"90786108900950","3","-1.1742706","0.19845581","9.559708","sit up","0"
"90786128889964","3","-1.1539307","0.21401978","9.632736","sit up","0"
"90786148878978","3","-1.0809021","0.13381958","9.584839","sit up","0"
"90786168837474","3","-1.0988617","0.20803833","9.496262","sit up","0"
"90786188826487","3","-1.0796967","0.25473022","9.374161","sit up","0"
"90786208815501","3","-1.0401917","0.2451477","9.536957","sit up","0"
"90786228773997","3","-0.8546448","0.21282959","9.66864","sit up","0"
"90786248763011","3","-0.8247223","0.17811584","9.66864","sit up","0"
"90786268752024","3","-1.1383667","0.18409729","9.708145","sit up","0"
"90786288710521","3","-1.3382721","0.06916809","9.662659","sit up","0"
"90786308699534","3","-1.3478546","0.055999756","9.718918","sit up","0"
"90786328658030","3","-1.3239136","0.077545166","9.788345","sit up","0"
"90786348647044","3","-1.2808228","0.07395935","9.775177","sit up","0"
"90786368636058","3","-1.329895","0.065582275","9.803909","sit up","0"
"90786388625071","3","-1.3322906","0.0907135","9.794342","sit up","0"
"90786408614085","3","-1.2365265","0.18049622","9.703354","sit up","0"
"90786428603099","3","-1.19104","0.22000122","9.6866","sit up","0"
"90786448561595","3","-1.171875","0.23316956","9.643509","sit up","0"
"90786468550608","3","-1.1287842","0.19487","9.581253","sit up","0"
"90786488539622","3","-1.0749207","0.19366455","9.590836","sit up","0"
"90786508498118","3","-1.0282288","0.19845581","9.6064","sit up","0"
"90786528487132","3","-1.0629425","0.19606018","9.583649","sit up","0"
"90786548476146","3","-1.1072388","0.18888855","9.58963","sit up","0"
"90786568434642","3","-1.1838531","0.120651245","9.654282","sit up","0"
"90786588423655","3","-1.1694794","0.09790039","9.699768","sit up","0"
"90786608412669","3","-1.1000519","0.11465454","9.58963","sit up","0"
"90786628371165","3","-1.1168213","0.14219666","9.654282","sit up","0"
"90786648360179","3","-1.127594","0.17332458","9.663849","sit up","0"
"90786668349192","3","-1.0545654","0.123046875","9.52858","sit up","0"
"90786688338206","3","-1.1192017","0.120651245","9.516617","sit up","0"
"90786708327220","3","-1.1742706","0.17811584","9.660263","sit up","0"
"90786728285716","3","-0.92767334","0.2918396","9.612381","sit up","0"
"90786748274730","3","-0.7481079","0.30500793","9.645905","sit up","0"
"90786768263743","3","-0.9635773","0.16494751","9.795532","sit up","0"
"90786788222239","3","-1.4017181","0.0907135","9.794342","sit up","0"
"90786808211253","3","-1.5729065","0.060791016","9.64949","sit up","0"
"90786828200267","3","-1.6662903","0.15415955","9.66745","sit up","0"
"90786848158763","3","-1.5346069","0.21401978","9.8398285","sit up","0"
"90786868147776","3","-1.1826477","0.20803833","9.704559","sit up","0"
"90786888136790","3","-1.1192017","0.2164154","9.486679","sit up","0"
"90786908095286","3","-1.2173767","0.23197937","9.708145","sit up","0"
"90786928084300","3","-1.1694794","0.3026123","9.727295","sit up","0"
"90786948073314","3","-1.0701294","0.27627563","9.56929","sit up","0"
"90786968062327","3","-1.088089","0.1876831","9.630341","sit up","0"
"90786988051341","3","-1.2724304","0.18888855","9.703354","sit up","0"
"90787008040355","3","-1.3789825","0.27746582","9.694977","sit up","0"
"90787027998851","3","-1.3382721","0.24394226","9.643509","sit up","0"
"90787047987864","3","-1.2077942","0.18528748","9.733292","sit up","0"
"90787067976878","3","-1.1754761","0.18170166","9.7057495","sit up","0"
"90787087935374","3","-1.2053986","0.19606018","9.638718","sit up","0"
"90787107924388","3","-1.2437134","0.2678833","9.605194","sit up","0"
"90787127882884","3","-1.274826","0.28344727","9.66864","sit up","0"
"90787147871898","3","-1.171875","0.23316956","9.685394","sit up","0"
"90787167860911","3","-1.0868835","0.20922852","9.617172","sit up","0"
"90787187819407","3","-1.0952606","0.21522522","9.632736","sit up","0"
"90787207808421","3","-1.068924","0.31697083","9.654282","sit up","0"
"90787227797435","3","-1.0653381","0.30859375","9.516617","sit up","0"
"90787247786448","3","-1.1192017","0.30978394","9.515411","sit up","0"
"90787267775462","3","-1.0796967","0.27148438","9.66745","sit up","0"
"90787287764476","3","-1.0390015","0.26550293","9.605194","sit up","0"
"90787307722972","3","-1.127594","0.29063416","9.611176","sit up","0"
"90787327711985","3","-1.1814575","0.29421997","9.642303","sit up","0"
"90787347700999","3","-1.1694794","0.27388","9.636322","sit up","0"
"90787367659495","3","-1.1814575","0.30140686","9.625549","sit up","0"
"90787387648509","3","-1.2173767","0.32176208","9.655472","sit up","0"
"90787407637523","3","-1.2293396","0.33493042","9.643509","sit up","0"
"90787427596019","3","-1.1491394","0.35168457","9.647095","sit up","0"
"90787447554515","3","-1.1299744","0.36964417","9.645905","sit up","0"
"90787467513011","3","-1.2006073","0.33493042","9.672226","sit up","0"
"90787487502024","3","-1.2293396","0.34928894","9.669846","sit up","0"
"90787507491038","3","-1.2891998","0.33972168","9.602798","sit up","0"
"90787527480052","3","-1.2042084","0.3540802","9.683014","sit up","0"
"90787547469065","3","-0.9408417","0.35168457","9.548935","sit up","0"
"90787567458079","3","-1.1072388","0.27027893","9.644699","sit up","0"
"90787587447093","3","-1.3274994","0.28823853","9.824265","sit up","0"
"90787607436107","3","-1.2855988","0.34928894","9.619568","sit up","0"
"90787627425120","3","-1.2640533","0.34809875","9.654282","sit up","0"
"90787647383616","3","-1.2317352","0.31697083","9.717728","sit up","0"
"90787667372630","3","-1.2484894","0.2678833","9.683014","sit up","0"
"90787687361644","3","-1.2760315","0.23556519","9.661453","sit up","0"
"90787707320140","3","-1.2544861","0.24993896","9.644699","sit up","0"
"90787727309153","3","-1.2688446","0.3073883","9.653076","sit up","0"
"90787747298167","3","-1.274826","0.2966156","9.683014","sit up","0"
"90787767256663","3","-1.2496948","0.2930298","9.675827","sit up","0"
"90787787245677","3","-1.2377167","0.28704834","9.657867","sit up","0"
"90787807234690","3","-1.2472992","0.29063416","9.656677","sit up","0"
"90787827223704","3","-1.2161713","0.30619812","9.647095","sit up","0"
"90787847212718","3","-1.2185669","0.30140686","9.617172","sit up","0"
"90787867171214","3","-1.1934357","0.313385","9.641113","sit up","0"
"90787887160228","3","-1.1934357","0.29421997","9.662659","sit up","0"
"90787907149241","3","-1.2209625","0.3026123","9.66864","sit up","0"
"90787927107737","3","-1.2544861","0.2918396","9.650681","sit up","0"
"90787947096751","3","-1.2460938","0.29542542","9.654282","sit up","0"
"90787967085765","3","-1.235321","0.28344727","9.648285","sit up","0"
"90787987044261","3","-1.2592621","0.28344727","9.657867","sit up","0"
"90788007033274","3","-1.2676544","0.27746582","9.661453","sit up","0"
"90788027022288","3","-1.2580719","0.27148438","9.653076","stand up","0"
"90788046980784","3","-1.250885","0.28105164","9.642303","stand up","0"
"90788066969798","3","-1.2437134","0.29421997","9.648285","stand up","0"
"90788086958812","3","-1.230545","0.3026123","9.642303","stand up","0"
"90788106947825","3","-1.2149811","0.2930298","9.659073","stand up","0"
"90788126936839","3","-1.21138","0.28823853","9.638718","stand up","0"
"90788146895335","3","-1.2209625","0.2930298","9.638718","stand up","0"
"90788166884349","3","-1.2030029","0.3026123","9.630341","stand up","0"
"90788186873362","3","-1.2233582","0.29063416","9.641113","stand up","0"
"90788206831858","3","-1.2245483","0.2918396","9.657867","stand up","0"
"90788226820872","3","-1.2329254","0.2918396","9.660263","stand up","0"
"90788246809886","3","-1.2449036","0.27627563","9.647095","stand up","0"
"90788266768382","3","-1.2484894","0.28344727","9.644699","stand up","0"
"90788286757396","3","-1.2544861","0.28944397","9.64949","stand up","0"
"90788306746409","3","-1.2544861","0.29901123","9.661453","stand up","0"
"90788326704905","3","-1.2544861","0.28823853","9.655472","stand up","0"
"90788346693919","3","-1.2484894","0.28225708","9.659073","stand up","0"
"90788366682933","3","-1.2209625","0.28344727","9.643509","stand up","0"
"90788386671946","3","-1.2077942","0.2930298","9.625549","stand up","0"
"90788406660960","3","-1.2173767","0.29421997","9.620758","stand up","0"
"90788426649974","3","-1.2221527","0.28704834","9.60759","stand up","0"
"90788446608470","3","-1.2329254","0.2918396","9.636322","stand up","0"
"90788466597483","3","-1.2449036","0.2966156","9.633926","stand up","0"
"90788486555980","3","-1.250885","0.30021667","9.645905","stand up","0"
"90788506544993","3","-1.27005","0.28344727","9.604004","stand up","0"
"90788526503489","3","-1.3071594","0.2846527","9.605194","stand up","0"
"90788546461985","3","-1.2724304","0.3038025","9.636322","stand up","0"
"90788566450999","3","-1.2389221","0.33493042","9.624344","stand up","0"
"90788586409495","3","-1.2556763","0.32894897","9.656677","stand up","0"
"90788606398509","3","-1.2832031","0.313385","9.669846","stand up","0"
"90788626387523","3","-1.2784271","0.28344727","9.661453","stand up","0"
"90788646407054","3","-1.2592621","0.27027893","9.650681","stand up","0"
"90788666396067","3","-1.2532806","0.27746582","9.669846","stand up","0"
"90788686385081","3","-1.3047638","0.28944397","9.759628","stand up","0"
"90788706374095","3","-1.3442688","0.24633789","9.789551","stand up","0"
"90788726332591","3","-1.4340515","0.23316956","9.817078","stand up","0"
"90788746321605","3","-1.4651642","0.27986145","9.764404","stand up","0"
"90788766280101","3","-1.4448242","0.2858429","9.741669","stand up","0"
"90788786269114","3","-1.4172821","0.30021667","9.6267395","stand up","0"
"90788806258128","3","-1.4029236","0.32295227","9.595612","stand up","0"
"90788826216624","3","-1.3562317","0.32176208","9.618362","stand up","0"
"90788846205638","3","-1.3765869","0.3026123","9.717728","stand up","0"
"90788866194651","3","-1.3945465","0.33851624","9.663849","stand up","0"
"90788886153148","3","-1.2796173","0.35766602","9.662659","stand up","0"
"90788906142161","3","-1.1072388","0.23316956","9.96553","stand up","0"
"90788926131175","3","-1.1634979","0.048828125","10.12114","stand up","0"
"90788946120189","3","-1.2939911","0.18528748","9.971512","stand up","0"
"90788966109202","3","-1.314331","0.3433075","9.648285","stand up","0"
"90788986098216","3","-0.8570404","0.43548584","9.857788","stand up","0"
"90789006056712","3","-0.7205658","0.4809723","9.82666","stand up","0"
"90789026045726","3","-0.64515686","0.2631073","9.214935","stand up","0"
"90789046034739","3","-0.969574","0.18888855","9.546539","stand up","0"
"90789065993235","3","-0.9360504","0.35647583","9.521393","stand up","0"
"90789085982249","3","-0.74690247","0.48695374","8.76004","stand up","0"
"90789105971263","3","-0.94921875","0.41633606","9.368164","stand up","0"
"90789125929759","3","-1.0378113","0.20443726","10.16185","stand up","0"
"90789145918773","3","-0.71099854","0.23197937","9.768005","stand up","0"
"90789165877269","3","-0.67388916","0.39717102","9.242477","stand up","0"
"90789185866282","3","-0.9288635","0.39598083","9.442383","stand up","0"
"90789205855296","3","-0.95280457","0.34449768","9.835037","stand up","0"
"90789225844310","3","-0.8163452","0.28344727","9.811096","stand up","0"
"90789245833323","3","-0.8761902","0.2966156","9.630341","stand up","0"
"90789265822337","3","-0.8965454","0.3241577","9.565689","stand up","0"
"90789285780833","3","-0.88816833","0.38879395","9.625549","stand up","0"
"90789305769847","3","-0.86901855","0.35289","9.690186","stand up","0"
"90789325758860","3","-0.88098145","0.30021667","9.739273","stand up","0"
"90789345717357","3","-0.87979126","0.30978394","9.665054","stand up","0"
"90789365706370","3","-0.8845825","0.33372498","9.661453","stand up","0"
"90789385695384","3","-0.87260437","0.3313446","9.643509","stand up","0"
"90789405653880","3","-0.90133667","0.3828125","9.68779","stand up","0"
"90789425642894","3","-0.87739563","0.29421997","9.740463","stand up","0"
"90789445631907","3","-0.8785858","0.32055664","9.656677","stand up","0"
"90789465590403","3","-0.8941498","0.37083435","9.624344","stand up","0"
"90789485579417","3","-0.8642273","0.29063416","9.744064","stand up","0"
"90789505568431","3","-0.8869629","0.35049438","9.627945","stand up","0"
"90789525557444","3","-0.9049225","0.31936646","9.699768","stand up","0"
"90789545546458","3","-0.85943604","0.32894897","9.693787","stand up","0"
"90789565504954","3","-0.88816833","0.37322998","9.600403","stand up","0"
"90789585493968","3","-0.90252686","0.34570312","9.697372","stand up","0"
"90789605482982","3","-0.87260437","0.3313446","9.709351","stand up","0"
"90789625471995","3","-0.8821869","0.31817627","9.685394","stand up","0"
"90789645461009","3","-0.87979126","0.3433075","9.618362","stand up","0"
"90789665419505","3","-0.8738098","0.33732605","9.717728","stand up","0"
"90789685378001","3","-0.8893585","0.35168457","9.698563","stand up","0"
"90789705367015","3","-0.8857727","0.3468933","9.691391","stand up","0"
"90789725356028","3","-0.8845825","0.3145752","9.6866","stand up","0"
"90789745314524","3","-0.8761902","0.33372498","9.673431","stand up","0"
"90789765303538","3","-0.87260437","0.34091187","9.685394","stand up","0"
"90789785292552","3","-0.88816833","0.32655334","9.669846","stand up","0"
"90789805281565","3","-0.8869629","0.33372498","9.680618","stand up","0"
"90789825270579","3","-0.89775085","0.3433075","9.660263","stand up","0"
"90789845229075","3","-0.8857727","0.33013916","9.692581","stand up","0"
"90789865218089","3","-0.85943604","0.33732605","9.641113","stand up","0"
"90789885207103","3","-0.87739563","0.33851624","9.671036","stand up","0"
"90789905165599","3","-0.8761902","0.33372498","9.684204","stand up","0"
"90789925154612","3","-0.8821869","0.3241577","9.683014","stand up","0"
"90789945143626","3","-0.8678131","0.3468933","9.671036","stand up","0"
"90789965102122","3","-0.87979126","0.313385","9.681808","stand up","0"
"90789985091136","3","-0.8929596","0.33972168","9.675827","stand up","0"
"90790005080149","3","-0.89775085","0.35049438","9.648285","stand up","0"
"90790025038646","3","-0.875","0.30859375","9.722519","stand up","0"
"90790045027659","3","-0.88098145","0.35168457","9.629135","stand up","0"
"90790065016673","3","-0.89894104","0.32176208","9.714127","stand up","0"
"90790085005687","3","-0.87739563","0.34449768","9.662659","stand up","0"
"90790104994700","3","-0.8929596","0.33851624","9.683014","stand up","0"
"90790124953196","3","-0.8666229","0.32894897","9.661453","stand up","0"
"90790144942210","3","-0.88816833","0.34928894","9.655472","stand up","0"
"90790164931224","3","-0.89775085","0.35766602","9.6866","stand up","0"
"90790184889720","3","-0.8821869","0.33013916","9.738068","stand up","0"
"90790204878733","3","-0.8738098","0.28944397","9.650681","stand up","0"
"90790224867747","3","-0.8929596","0.37443542","9.624344","stand up","0"
"90790244826243","3","-0.88816833","0.31217957","9.716522","stand up","0"
"90790264815257","3","-0.87979126","0.34449768","9.684204","stand up","0"
"90790284804271","3","-0.8857727","0.36724854","9.596817","stand up","0"
"90790304762767","3","-0.875","0.27148438","9.795532","stand up","0"
"90790324751780","3","-0.89175415","0.37683105","9.550125","stand up","0"
"90790344710276","3","-0.8965454","0.31098938","9.7668","stand up","0"
"90790364699290","3","-0.8546448","0.33493042","9.662659","stand up","0"
"90790384688304","3","-0.90852356","0.3361206","9.6662445","stand up","0"
"90790404677317","3","-0.8738098","0.3241577","9.7057495","stand up","0"
"90790424666331","3","-0.8857727","0.32295227","9.654282","stand up","0"
"90790444655345","3","-0.89775085","0.35887146","9.66745","stand up","0"
"90790464613841","3","-0.87260437","0.31697083","9.706955","stand up","0"
"90790484602855","3","-0.8666229","0.32774353","9.677017","stand up","0"
"90790504591868","3","-0.89056396","0.34449768","9.642303","stand up","0"
"90790524550364","3","-0.8845825","0.31936646","9.693787","stand up","0"
"90790544539378","3","-0.8833771","0.34809875","9.647095","stand up","0"
"90790564528392","3","-0.8761902","0.32655334","9.698563","stand up","0"
"90790584486888","3","-0.87260437","0.3313446","9.673431","stand up","0"
"90790604475901","3","-0.8893585","0.3313446","9.660263","stand up","0"
"90790624464915","3","-0.86302185","0.32894897","9.700958","stand up","0"
"90790644453929","3","-0.8857727","0.33013916","9.674622","stand up","0"
"90790664442942","3","-0.87979126","0.3325348","9.685394","stand up","0"
"90790684431956","3","-0.8714142","0.32774353","9.669846","stand up","0"
"90790704390452","3","-0.8761902","0.32894897","9.659073","stand up","0"
"90790724379466","3","-0.8857727","0.33972168","9.672226","stand up","0"
"90790744337962","3","-0.88098145","0.34570312","9.685394","stand up","0"
"90790764326976","3","-0.87979126","0.3433075","9.647095","stand up","0"
"90790784315989","3","-0.8714142","0.32295227","9.665054","stand up","0"
"90790804274485","3","-0.8714142","0.33972168","9.675827","stand up","0"
"90790824263499","3","-0.88098145","0.33493042","9.697372","stand up","0"
"90790844252513","3","-0.8845825","0.31817627","9.702164","stand up","0"
"90790864211009","3","-0.87979126","0.3361206","9.64949","stand up","0"
"90790884200023","3","-0.8738098","0.3145752","9.66864","stand up","0"
"90790904189036","3","-0.8654175","0.33493042","9.674622","stand up","0"
"90790924147532","3","-0.88816833","0.38520813","9.700958","stand up","0"
"90790944136546","3","-0.8714142","0.32055664","9.724899","stand up","0"
"90790964125560","3","-0.86183167","0.27746582","9.663849","stand up","0"
"90790984114573","3","-0.8714142","0.39598083","9.57048","stand up","0"
"90791004103587","3","-0.8714142","0.23916626","9.84581","stand up","0"
"90791024092601","3","-0.8558502","0.4007721","9.578857","stand up","0"
"90791044051097","3","-0.8965454","0.34091187","9.673431","stand up","0"
"90791064040110","3","-0.8426819","0.26908875","9.799133","stand up","0"
"90791084029124","3","-0.9049225","0.41033936","9.522598","stand up","0"
"90791103987620","3","-0.88098145","0.29542542","9.779968","stand up","0"
"90791123976634","3","-0.84866333","0.33732605","9.625549","stand up","0"
"90791143935130","3","-0.90971375","0.33493042","9.671036","stand up","0"
"90791163924144","3","-0.84866333","0.32055664","9.726105","stand up","0"
"90791183913157","3","-0.87260437","0.3313446","9.657867","stand up","0"
"90791203871653","3","-0.8654175","0.33851624","9.679413","stand up","0"
"90791223860667","3","-0.8785858","0.33493042","9.688995","stand up","0"
"90791243849681","3","-0.8785858","0.31578064","9.703354","stand up","0"
"90791263838694","3","-0.8845825","0.33851624","9.642303","stand up","0"
"90791283827708","3","-0.8761902","0.313385","9.702164","stand up","0"
"90791303816722","3","-0.8785858","0.3361206","9.64949","stand up","0"
"90791323775218","3","-0.8833771","0.32774353","9.694977","stand up","0"
"90791343764232","3","-0.8738098","0.3241577","9.66864","stand up","0"
"90791363753245","3","-0.8965454","0.3421173","9.671036","stand up","0"
"90791383711741","3","-0.87739563","0.36245728","9.712936","stand up","0"
"90791403700755","3","-0.8654175","0.3433075","9.647095","stand up","0"
"90791423659251","3","-0.8869629","0.33851624","9.669846","stand up","0"
"90791443648265","3","-0.9061279","0.3145752","9.706955","stand up","0"
"90791463637278","3","-0.88098145","0.32894897","9.669846","stand up","0"
"90791483595774","3","-0.8785858","0.3468933","9.674622","stand up","0"
"90791503584788","3","-0.8833771","0.33732605","9.679413","stand up","0"
"90791523573802","3","-0.8738098","0.3313446","9.683014","stand up","0"
"90791543562815","3","-0.87260437","0.32055664","9.66864","stand up","0"
"90791563551829","3","-0.87739563","0.3325348","9.678223","stand up","0"
"90791583540843","3","-0.8654175","0.33493042","9.669846","stand up","0"
"90791603499339","3","-0.85943604","0.33851624","9.691391","stand up","0"
"90791623488353","3","-0.86183167","0.34091187","9.677017","stand up","0"
"90791643477366","3","-0.875","0.32176208","9.663849","stand up","0"
"90791663435862","3","-0.87260437","0.32894897","9.679413","stand up","0"
"90791683424876","3","-0.8761902","0.33972168","9.683014","stand up","0"
"90791703413890","3","-0.86901855","0.32055664","9.691391","stand up","0"
"90791723372386","3","-0.8678131","0.36245728","9.637512","stand up","0"
"90791743361399","3","-0.8833771","0.2966156","9.752441","stand up","0"
"90791763319896","3","-0.8654175","0.35168457","9.605194","stand up","0"
"90791783308909","3","-0.8965454","0.33013916","9.690186","stand up","0"
"90791803297923","3","-0.86302185","0.31697083","9.699768","stand up","0"
"90791823286937","3","-0.87260437","0.33851624","9.647095","stand up","0"
"90791843275950","3","-0.86183167","0.32055664","9.709351","stand up","0"
"90791863264964","3","-0.8654175","0.33013916","9.644699","stand up","0"
"90791883223460","3","-0.8869629","0.33013916","9.669846","stand up","0"
"90791903212474","3","-0.86302185","0.34809875","9.677017","stand up","0"
"90791923201487","3","-0.8845825","0.32295227","9.684204","stand up","0"
"90791943159983","3","-0.8654175","0.33493042","9.661453","stand up","0"
"90791963148997","3","-0.8642273","0.32176208","9.681808","stand up","0"
"90791983138011","3","-0.88816833","0.32894897","9.660263","stand up","0"
"90792003096507","3","-0.8714142","0.3313446","9.697372","stand up","0"
"90792043010182","3","-0.8857727","0.33493042","9.661453","none","1"
"90792062999196","3","-0.8606415","0.31936646","9.698563","none","1"
"90792083018727","3","-0.8738098","0.35168457","9.675827","none","1"
"90792103007741","3","-0.88816833","0.31936646","9.688995","none","1"
"90792122996754","3","-0.87739563","0.33013916","9.660263","none","1"
"90792142985768","3","-0.8761902","0.33972168","9.644699","none","1"
"90792162944264","3","-0.87020874","0.31817627","9.727295","none","1"
"90792182933278","3","-0.87979126","0.34809875","9.639908","none","1"
"90792202922291","3","-0.8785858","0.34091187","9.661453","none","1"
"90792222880788","3","-0.8833771","0.32176208","9.711731","none","1"
"90792242869801","3","-0.8678131","0.3433075","9.6662445","none","1"
"90792262858815","3","-0.8666229","0.33972168","9.684204","none","1"
"90792282817311","3","-0.8666229","0.33372498","9.684204","none","1"
"90792302806325","3","-0.87260437","0.34928894","9.6662445","none","1"
"90792322795338","3","-0.85824585","0.3313446","9.693787","none","1"
"90792342753834","3","-0.87739563","0.3325348","9.659073","none","1"
"90792362742848","3","-0.89056396","0.3313446","9.647095","none","1"
"90792382731862","3","-0.87260437","0.33013916","9.681808","none","1"
"90792402720875","3","-0.8833771","0.3361206","9.679413","none","1"
"90792422709889","3","-0.87979126","0.33372498","9.665054","none","1"
"90792442668385","3","-0.85824585","0.33851624","9.675827","none","1"
"90792462657399","3","-0.8666229","0.32176208","9.694977","none","1"
"90792482646413","3","-0.8738098","0.31817627","9.679413","none","1"
"90792502604909","3","-0.8821869","0.3468933","9.6662445","none","1"
"90792522593922","3","-0.8714142","0.34928894","9.672226","none","1"
"90792542552418","3","-0.87020874","0.32774353","9.683014","none","1"
"90792562541432","3","-0.875","0.34091187","9.66745","none","1"
"90792582530446","3","-0.85943604","0.32894897","9.679413","none","1"
"90792602519459","3","-0.86901855","0.32894897","9.671036","none","1"
"90792622477956","3","-0.8761902","0.3325348","9.655472","none","1"
"90792642466969","3","-0.86901855","0.3325348","9.672226","none","1"
"90792662455983","3","-0.8785858","0.3313446","9.681808","none","1"
"90792682444997","3","-0.88098145","0.33372498","9.66864","none","1"
"90792702434010","3","-0.8785858","0.33493042","9.6662445","none","1"
"90792722392506","3","-0.875","0.34570312","9.648285","none","1"
"90792742381520","3","-0.86183167","0.33851624","9.679413","none","1"
"90792762370534","3","-0.8869629","0.33493042","9.692581","none","1"
"90792782329030","3","-0.87020874","0.3241577","9.684204","none","1"
"90792802318043","3","-0.8833771","0.3313446","9.688995","none","1"
"90792822307057","3","-0.86183167","0.32774353","9.671036","none","1"
"90792842265553","3","-0.87979126","0.3361206","9.675827","none","1"
"90792862254567","3","-0.8666229","0.32894897","9.678223","none","1"
"90792882243581","3","-0.87739563","0.33972168","9.669846","none","1"
"90792902202077","3","-0.875","0.34809875","9.66745","none","1"
"90792922191090","3","-0.8678131","0.3468933","9.681808","none","1"
"90792942180104","3","-0.8606415","0.33851624","9.66864","none","1"
"90792962169118","3","-0.89056396","0.32176208","9.685394","none","1"
"90792982158131","3","-0.89056396","0.3433075","9.6662445","none","1"
"90793002116627","3","-0.8666229","0.3421173","9.672226","none","1"
"90793022105641","3","-0.87260437","0.33732605","9.685394","none","1"
"90793042094655","3","-0.8821869","0.3253479","9.663849","none","1"
"90793062053151","3","-0.875","0.3361206","9.673431","none","1"
"90793082042165","3","-0.8654175","0.34809875","9.683014","none","1"
"90793102031178","3","-0.86302185","0.3241577","9.6866","none","1"
"90793121989674","3","-0.8738098","0.33013916","9.685394","none","1"
"90793141978688","3","-0.8833771","0.33372498","9.692581","none","1"
"90793161967702","3","-0.8761902","0.33732605","9.671036","none","1"
"90793181926198","3","-0.8642273","0.32655334","9.685394","none","1"
"90793201915211","3","-0.87739563","0.33972168","9.681808","none","1"
"90793221904225","3","-0.8714142","0.33851624","9.674622","none","1"
"90793241893239","3","-0.87020874","0.3433075","9.674622","none","1"
"90793261882252","3","-0.8738098","0.33972168","9.684204","none","1"
"90793281871266","3","-0.87260437","0.3433075","9.681808","none","1"
"90793301829762","3","-0.87020874","0.33372498","9.679413","none","1"
"90793321818776","3","-0.8534546","0.3433075","9.665054","none","1"
"90793341777272","3","-0.8654175","0.3468933","9.662659","none","1"
"90793361766286","3","-0.8606415","0.34449768","9.655472","none","1"
"90793381755299","3","-0.89175415","0.3468933","9.674622","none","1"
"90793401713795","3","-0.8821869","0.33972168","9.6662445","none","1"
"90793421702809","3","-0.8654175","0.3421173","9.674622","none","1"
"90793441691823","3","-0.8869629","0.33493042","9.681808","none","1"
"90793461650319","3","-0.87020874","0.33493042","9.674622","none","1"
"90793481639332","3","-0.8678131","0.3241577","9.690186","none","1"
"90793501628346","3","-0.86901855","0.33851624","9.672226","none","1"
"90793521617360","3","-0.8761902","0.34809875","9.683014","none","1"
"90793541606373","3","-0.88098145","0.3433075","9.684204","none","1"
"90793561564870","3","-0.86901855","0.35289","9.650681","none","1"
"90793581553883","3","-0.8678131","0.3433075","9.683014","none","1"
"90793601542897","3","-0.86302185","0.3325348","9.696182","none","1"
"90793621501393","3","-0.8761902","0.33851624","9.685394","none","1"
"90793641490407","3","-0.87020874","0.3421173","9.671036","none","1"
"90793661479420","3","-0.8666229","0.35528564","9.657867","none","1"
"90793681437916","3","-0.8714142","0.3612671","9.665054","none","1"
"90793701426930","3","-0.8761902","0.34928894","9.693787","none","1"
"90793721385426","3","-0.875","0.33732605","9.669846","none","1"
"90793741374440","3","-0.87260437","0.33972168","9.678223","none","1"
"90793761363454","3","-0.89175415","0.3540802","9.692581","none","1"
"90793781352467","3","-0.88098145","0.35049438","9.680618","none","1"
"90793801341481","3","-0.86183167","0.3433075","9.680618","none","1"
"90793821330495","3","-0.8714142","0.35289","9.674622","none","1"
"90793841319508","3","-0.87979126","0.35168457","9.653076","none","1"
"90793861278004","3","-0.87260437","0.34091187","9.663849","none","1"
"90793881267018","3","-0.8821869","0.3325348","9.656677","none","1"
"90793901256032","3","-0.8785858","0.3468933","9.678223","none","1"
"90793921214528","3","-0.8821869","0.35049438","9.674622","none","1"
"90793941203541","3","-0.8761902","0.3313446","9.674622","none","1"
"90793961162038","3","-0.8761902","0.3361206","9.684204","none","1"
"90793981151051","3","-0.86901855","0.3361206","9.679413","none","1"
"90794001140065","3","-0.8785858","0.3313446","9.657867","none","1"
"90794021098561","3","-0.8833771","0.3421173","9.66745","none","1"
"90794041057057","3","-0.8893585","0.33851624","9.690186","none","1"
"90794061046071","3","-0.87260437","0.34091187","9.680618","none","1"
"90794081035084","3","-0.8833771","0.3433075","9.680618","none","1"
"90794101024098","3","-0.8785858","0.34449768","9.671036","none","1"
"90794121013112","3","-0.8534546","0.34928894","9.679413","none","1"
"90794141002125","3","-0.87260437","0.3421173","9.688995","none","1"
"90794160991139","3","-0.8857727","0.34449768","9.66864","none","1"
"90794180980153","3","-0.88098145","0.3325348","9.684204","none","1"
"90794200938649","3","-0.8654175","0.3433075","9.694977","none","1"
"90794220927663","3","-0.8654175","0.35049438","9.692581","none","1"
"90794240886159","3","-0.8869629","0.33732605","9.683014","none","1"
"90794260875172","3","-0.87020874","0.3433075","9.679413","none","1"
"90794280864186","3","-0.8738098","0.34091187","9.696182","none","1"
"90794300822682","3","-0.86901855","0.33972168","9.678223","none","1"
"90794320811696","3","-0.87020874","0.33493042","9.684204","none","1"
"90794340800709","3","-0.875","0.34449768","9.6662445","none","1"
"90794360759206","3","-0.8821869","0.3433075","9.674622","none","1"
"90794380748219","3","-0.87260437","0.35168457","9.685394","none","1"
"90794400737233","3","-0.87739563","0.33972168","9.677017","none","1"
"90794420726247","3","-0.8761902","0.3325348","9.683014","none","1"
"90794440715260","3","-0.87979126","0.3253479","9.690186","none","1"
"90794460704274","3","-0.8666229","0.33493042","9.66745","none","1"
"90794480662770","3","-0.8785858","0.3421173","9.681808","none","1"
"90794500651784","3","-0.8714142","0.3421173","9.685394","none","1"
"90794520610280","3","-0.8654175","0.34809875","9.679413","none","1"
"90794540599293","3","-0.86183167","0.3468933","9.671036","none","1"
"90794560588307","3","-0.875","0.3421173","9.673431","none","1"
"90794580546803","3","-0.8714142","0.33851624","9.681808","none","1"
"90794600535817","3","-0.8642273","0.33372498","9.663849","none","1"
"90794620524831","3","-0.86302185","0.33851624","9.677017","none","1"
"90794640483327","3","-0.87979126","0.3313446","9.681808","none","1"
"90794660472340","3","-0.87020874","0.33972168","9.685394","none","1"
"90794680461354","3","-0.8666229","0.32894897","9.672226","none","1"
"90794700450368","3","-0.87260437","0.3325348","9.681808","none","1"
"90794720439381","3","-0.8785858","0.33972168","9.675827","none","1"
"90794740428395","3","-0.8821869","0.33972168","9.672226","none","1"
"90794760386891","3","-0.87020874","0.3433075","9.68779","none","1"
"90794780375905","3","-0.87260437","0.34570312","9.6662445","none","1"
"90794800364918","3","-0.8857727","0.33972168","9.679413","none","1"
"90794820323415","3","-0.86901855","0.3433075","9.674622","none","1"
"90794840312428","3","-0.8738098","0.32894897","9.674622","none","1"
"90794860270924","3","-0.8845825","0.3313446","9.672226","none","1"
"90794880259938","3","-0.8869629","0.33372498","9.691391","none","1"
"90794900248952","3","-0.8738098","0.33493042","9.672226","none","1"
"90794920207448","3","-0.87020874","0.35049438","9.66745","none","1"
"90794940196461","3","-0.87260437","0.33372498","9.683014","none","1"
"90794960185475","3","-0.875","0.32295227","9.677017","none","1"
"90794980174489","3","-0.875","0.3433075","9.66745","none","1"
"90795000163502","3","-0.86901855","0.34570312","9.665054","none","1"
"90795020118697","3","-0.8642273","0.34928894","9.690186","none","1"
"90795040107711","3","-0.86183167","0.3421173","9.684204","none","1"
"90795060096725","3","-0.8642273","0.34091187","9.681808","none","1"
"90795080085739","3","-0.88098145","0.34449768","9.680618","none","1"
"90795100044235","3","-0.8845825","0.33013916","9.685394","none","1"
"90795120002731","3","-0.8654175","0.34570312","9.693787","none","1"
"90795139961227","3","-0.8761902","0.33851624","9.673431","none","1"
"90795159950240","3","-0.87739563","0.34449768","9.672226","none","1"
"90795179908737","3","-0.87739563","0.33493042","9.678223","none","1"
"90795199897750","3","-0.8738098","0.3325348","9.674622","none","1"
"90795219886764","3","-0.87979126","0.33493042","9.671036","none","1"
"90795239906295","3","-0.8666229","0.3421173","9.66864","none","1"
"90795259895309","3","-0.8738098","0.34091187","9.66864","none","1"
"90795279884322","3","-0.8785858","0.3325348","9.665054","none","1"
"90795299873336","3","-0.8738098","0.34570312","9.669846","none","1"
"90795319831832","3","-0.88098145","0.33493042","9.671036","none","1"
"90795339820846","3","-0.8654175","0.32894897","9.681808","none","1"
"90795359809860","3","-0.8678131","0.34091187","9.665054","none","1"
"90795379768356","3","-0.8714142","0.3421173","9.681808","none","1"
"90795399757369","3","-0.875","0.34449768","9.6866","none","1"
"90795419746383","3","-0.86183167","0.34449768","9.6866","none","1"
"90795439704879","3","-0.87020874","0.3433075","9.671036","none","1"
"90795459693893","3","-0.8738098","0.34449768","9.688995","none","1"
"90795479652389","3","-0.8678131","0.3421173","9.684204","none","1"
"90795499641403","3","-0.87979126","0.3433075","9.6866","none","1"
"90795519630416","3","-0.8666229","0.3468933","9.66864","none","1"
"90795539619430","3","-0.86302185","0.34570312","9.672226","none","1"
"90795559608444","3","-0.87020874","0.33972168","9.681808","none","1"
"90795579597457","3","-0.8821869","0.34091187","9.699768","none","1"
"90795599555953","3","-0.8738098","0.3540802","9.678223","none","1"
"90795619544967","3","-0.86183167","0.34809875","9.675827","none","1"
"90795639533981","3","-0.87260437","0.3433075","9.669846","none","1"
"90795659492477","3","-0.875","0.3361206","9.680618","none","1"
"90795679481490","3","-0.87979126","0.3468933","9.66864","none","1"
"90795699470504","3","-0.8738098","0.3361206","9.661453","none","1"
"90795719429000","3","-0.88098145","0.3421173","9.680618","none","1"
"90795739418014","3","-0.8714142","0.3468933","9.690186","none","1"
"90795759376510","3","-0.85224915","0.3313446","9.690186","none","1"
"90795779365524","3","-0.87260437","0.34809875","9.671036","none","1"
"90795799354537","3","-0.8833771","0.3325348","9.672226","none","1"
"90795819343551","3","-0.8893585","0.3468933","9.673431","none","1"
"90795839332565","3","-0.8678131","0.34928894","9.662659","none","1"
"90795859321578","3","-0.87260437","0.34809875","9.669846","none","1"
"90795879280074","3","-0.875","0.33732605","9.681808","none","1"
"90795899269088","3","-0.8678131","0.33972168","9.66745","none","1"
"90795919258102","3","-0.8714142","0.35289","9.675827","none","1"
"90795939216598","3","-0.8714142","0.33851624","9.678223","none","1"
"90795959205612","3","-0.8714142","0.3468933","9.678223","none","1"
"90795979194625","3","-0.8857727","0.32894897","9.6866","none","1"
"90795999153121","3","-0.87260437","0.33013916","9.679413","sit down","1"
"90796019142135","3","-0.8534546","0.34809875","9.657867","sit down","1"
"90796039131149","3","-0.8642273","0.33493042","9.6662445","sit down","1"
"90796059089645","3","-0.8678131","0.32774353","9.678223","sit down","1"
"90796079078658","3","-0.8606415","0.3433075","9.675827","sit down","1"
"90796099067672","3","-0.8666229","0.33851624","9.691391","sit down","1"
"90796119056686","3","-0.8666229","0.3361206","9.690186","sit down","1"
"90796139045699","3","-0.8654175","0.34449768","9.669846","sit down","1"
"90796159004196","3","-0.8642273","0.33372498","9.656677","sit down","1"
"90796178993209","3","-0.87020874","0.33851624","9.674622","sit down","1"
"90796198982223","3","-0.8761902","0.3540802","9.683014","sit down","1"
"90796218940719","3","-0.8738098","0.34570312","9.671036","sit down","1"
"90796238929733","3","-0.87979126","0.3433075","9.662659","sit down","1"
"90796258918746","3","-0.87739563","0.34570312","9.680618","sit down","1"
"90796278877242","3","-0.8738098","0.33851624","9.673431","sit down","1"
"90796298866256","3","-0.8761902","0.33732605","9.673431","sit down","1"
"90796318824752","3","-0.8642273","0.3361206","9.662659","sit down","1"
"90796338813766","3","-0.8714142","0.34809875","9.674622","sit down","1"
"90796358802780","3","-0.8869629","0.3433075","9.665054","sit down","1"
"90796378791793","3","-0.8845825","0.34570312","9.669846","sit down","1"
"90796398780807","3","-0.8738098","0.34091187","9.683014","sit down","1"
"90796418769821","3","-0.8642273","0.33972168","9.675827","sit down","1"
"90796438728317","3","-0.86901855","0.3421173","9.675827","sit down","1"
"90796458717330","3","-0.8738098","0.3433075","9.6866","sit down","1"
"90796478706344","3","-0.8606415","0.3325348","9.681808","sit down","1"
"90796498664840","3","-0.8761902","0.31817627","9.675827","sit down","1"
"90796518653854","3","-0.87260437","0.33493042","9.674622","sit down","1"
"90796538642867","3","-0.8678131","0.35049438","9.674622","sit down","1"
"90796558601364","3","-0.86901855","0.3253479","9.677017","sit down","1"
"90796578590377","3","-0.87979126","0.3421173","9.684204","sit down","1"
"90796598579391","3","-0.87979126","0.33493042","9.6866","sit down","1"
"90796618537887","3","-0.88816833","0.32894897","9.679413","sit down","1"
"90796638526901","3","-0.8857727","0.32055664","9.679413","sit down","1"
"90796658515914","3","-0.8678131","0.3361206","9.672226","sit down","1"
"90796678504928","3","-0.85943604","0.34449768","9.663849","sit down","1"
"90796698493942","3","-0.8845825","0.34091187","9.680618","sit down","1"
"90796718452438","3","-0.87739563","0.33851624","9.681808","sit down","1"
"90796738441451","3","-0.8714142","0.34091187","9.673431","sit down","1"
"90796758430465","3","-0.87739563","0.3433075","9.675827","sit down","1"
"90796778388961","3","-0.8678131","0.33372498","9.677017","sit down","1"
"90796798377975","3","-0.86183167","0.3421173","9.66745","sit down","1"
"90796818366989","3","-0.8642273","0.33372498","9.657867","sit down","1"
"90796838325485","3","-0.86901855","0.3361206","9.651886","sit down","1"
"90796858314498","3","-0.8893585","0.35766602","9.7057495","sit down","1"
"90796878303512","3","-0.86901855","0.3421173","9.740463","sit down","1"
"90796898262008","3","-0.8714142","0.32894897","9.688995","sit down","1"
"90796918251022","3","-0.86302185","0.34570312","9.60878","sit down","1"
"90796938240035","3","-0.8666229","0.3325348","9.699768","sit down","1"
"90796958229049","3","-0.86901855","0.35168457","9.7285","sit down","1"
"90796978218063","3","-0.8929596","0.33972168","9.64949","sit down","1"
"90796998176559","3","-0.8738098","0.33493042","9.673431","sit down","1"
"90797018165572","3","-0.90852356","0.36245728","9.672226","sit down","1"
"90797038154586","3","-0.8869629","0.32774353","9.650681","sit down","1"
"90797058113082","3","-0.85824585","0.35289","9.602798","sit down","1"
"90797078102096","3","-0.9324646","0.33972168","9.663849","sit down","1"
"90797098060592","3","-0.8498535","0.3468933","9.721313","sit down","1"
"90797118049606","3","-0.8785858","0.34449768","9.599213","sit down","1"
"90797138038619","3","-0.9073181","0.32655334","9.594421","sit down","1"
"90797158027633","3","-0.88816833","0.3433075","9.669846","sit down","1"
"90797177986129","3","-0.9288635","0.34091187","9.674622","sit down","1"
"90797197975143","3","-0.9037323","0.35168457","9.52858","sit down","1"
"90797217964156","3","-0.9156952","0.36006165","9.576462","sit down","1"
"90797237953170","3","-0.9731598","0.30021667","9.624344","sit down","1"
"90797257942184","3","-0.97914124","0.33732605","9.650681","sit down","1"
"90797277900680","3","-0.89056396","0.3828125","9.479507","sit down","1"
"90797297889694","3","-0.86183167","0.41992188","9.442383","sit down","1"
"90797317878707","3","-0.8091583","0.3540802","9.447174","sit down","1"
"90797337837203","3","-0.64634705","0.31697083","9.7847595","sit down","1"
"90797357826217","3","-0.5457916","0.26669312","9.912857","sit down","1"
"90797377815231","3","-0.21420288","0.44506836","9.460342","sit down","1"
"90797397773727","3","-0.05378723","0.4330902","8.287186","sit down","1"
"90797417762740","3","-0.7457123","0.6964569","9.311905","sit down","1"
"90797437751754","3","-1.3490448","0.40316772","10.1762085","sit down","1"
"90797457710250","3","-1.2233582","-0.082855225","9.1167755","sit down","1"
"90797477699264","3","-1.2245483","-0.09841919","9.326279","sit down","1"
"90797497688278","3","-1.776413","0.2846527","10.062485","sit down","1"
"90797517677291","3","-2.2241364","0.4510498","10.451553","sit down","1"
"90797537666305","3","-2.1690674","0.04522705","10.561676","sit down","1"
"90797557624801","3","-1.9835205","-0.063705444","10.368942","sit down","1"
"90797577613815","3","-1.9631653","0.11465454","10.550903","sit down","1"
"90797597602828","3","-1.7967682","0.02607727","10.51619","sit down","1"
"90797617561324","3","-1.6231842","0.111068726","9.785965","sit down","1"
"90797637550338","3","-1.4891052","0.18289185","9.583649","sit down","1"
"90797657539352","3","-1.3119354","0.18649292","9.612381","sit down","1"
"90797677497848","3","-1.1599121","0.24873352","9.438797","sit down","1"
"90797697486862","3","-1.0952606","0.27627563","9.37056","sit down","1"
"90797717475875","3","-1.0665283","0.29782104","9.374161","sit down","1"
"90797737434371","3","-1.0186462","0.3325348","9.363388","sit down","1"
"90797757423385","3","-0.9635773","0.30859375","9.425629","sit down","1"
"90797777412399","3","-0.98872375","0.2966156","9.422043","sit down","1"
"90797797401412","3","-1.0701294","0.2966156","9.368164","sit down","1"
"90797817390426","3","-1.092865","0.30859375","9.386124","sit down","1"
"90797837348922","3","-1.0856934","0.31817627","9.407669","sit down","1"
"90797857337936","3","-1.064148","0.27746582","9.438797","sit down","1"
"90797877326949","3","-1.0892792","0.24156189","9.554916","sit down","1"
"90797897285446","3","-1.1647034","0.24394226","9.633926","sit down","1"
"90797917274459","3","-1.2556763","0.2523346","9.629135","sit down","1"
"90797937263473","3","-1.3322906","0.24275208","9.629135","sit down","1"
"90797957221969","3","-1.3825684","0.22000122","9.698563","sit down","1"
"90797977210983","3","-1.4424286","0.19126892","9.7668","sit down","1"
"90797997199996","3","-1.487915","0.20683289","9.802719","sit down","1"
"90798017158492","3","-1.4938965","0.20922852","9.808701","sit down","1"
"90798037147506","3","-1.4567871","0.19366455","9.829056","sit down","1"
"90798057136520","3","-1.408905","0.19366455","9.869751","sit down","1"
"90798077095016","3","-1.3670044","0.19487","9.837433","sit down","1"
"90798097084030","3","-1.3646088","0.2164154","9.790741","sit down","1"
"90798117073043","3","-1.3251038","0.23316956","9.7057495","sit down","1"
"90798137062057","3","-1.2963715","0.23916626","9.614777","sit down","1"
"90798157051071","3","-1.2772217","0.2559204","9.5824585","sit down","1"
"90798177009567","3","-1.2484894","0.26071167","9.5824585","sit down","1"
"90798196998580","3","-1.2233582","0.27746582","9.551331","sit down","1"
"90798216987594","3","-1.2245483","0.27986145","9.540558","sit down","1"
"90798236946090","3","-1.2101898","0.25950623","9.5477295","sit down","1"
"90798256935104","3","-1.2137756","0.2678833","9.546539","sit down","1"
"90798276924117","3","-1.2221527","0.27627563","9.544144","sit down","1"
"90798296882614","3","-1.2437134","0.2678833","9.553726","sit down","1"
"90798316871627","3","-1.2640533","0.26550293","9.58963","sit down","1"
"90798336860641","3","-1.2652588","0.24873352","9.636322","sit down","1"
"90798356819137","3","-1.2820129","0.26071167","9.644699","sit down","1"
"90798376808151","3","-1.3011627","0.24873352","9.66745","sit down","1"
"90798396797164","3","-1.3191223","0.24754333","9.698563","sit down","1"
"90798416786178","3","-1.3191223","0.24633789","9.691391","sit down","1"
"90798436775192","3","-1.3358765","0.23677063","9.706955","sit down","1"
"90798456733688","3","-1.3287048","0.24633789","9.692581","sit down","1"
"90798476722701","3","-1.3167267","0.24394226","9.690186","sit down","1"
"90798496681197","3","-1.3203278","0.234375","9.696182","sit down","1"
"90798516670211","3","-1.2951813","0.24754333","9.672226","sit down","1"
"90798536659225","3","-1.27005","0.2523346","9.644699","sit down","1"
"90798556648239","3","-1.274826","0.25352478","9.617172","sit down","1"
"90798576606735","3","-1.2640533","0.24873352","9.617172","sit down","1"
"90798596595748","3","-1.2556763","0.24156189","9.611176","sit down","1"
"90798616584762","3","-1.2592621","0.24394226","9.590836","sit down","1"
"90798636543258","3","-1.2520905","0.27148438","9.60759","sit down","1"
"90798656532272","3","-1.2556763","0.2642975","9.609985","sit down","1"
"90798676521285","3","-1.2556763","0.23916626","9.571671","sit down","1"
"90798696479781","3","-1.2616577","0.2523346","9.621948","sit down","1"
"90798716468795","3","-1.2640533","0.25473022","9.633926","sit down","1"
"90798736457809","3","-1.2868042","0.22599792","9.6267395","sit down","1"
"90798756446822","3","-1.2760315","0.22479248","9.623154","sit down","1"
"90798776435836","3","-1.2855988","0.22000122","9.678223","sit down","1"
"90798796394332","3","-1.2999725","0.24035645","9.663849","sit down","1"
"90798816383346","3","-1.2927856","0.24394226","9.651886","sit down","1"
"90798836372360","3","-1.2951813","0.23677063","9.685394","sit down","1"
"90798856330856","3","-1.2975769","0.24633789","9.674622","sit down","1"
"90798876319869","3","-1.3167267","0.23316956","9.657867","sit down","1"
"90798896308883","3","-1.3179321","0.24275208","9.660263","sit down","1"
"90798916267379","3","-1.2939911","0.23556519","9.674622","sit down","1"
"90798936256393","3","-1.29039","0.24156189","9.651886","sit down","1"
"90798956245406","3","-1.2868042","0.24633789","9.635117","sit down","1"
"90798976234420","3","-1.2868042","0.22239685","9.627945","sit down","1"
"90798996223434","3","-1.2820129","0.24035645","9.638718","sit down","1"
"90799016181930","3","-1.2820129","0.2451477","9.627945","sit down","1"
"90799036170944","3","-1.2796173","0.24035645","9.620758","sit down","1"
"90799056159957","3","-1.2868042","0.24275208","9.612381","sit down","1"
"90799076118453","3","-1.2796173","0.24156189","9.642303","sit down","1"
"90799096107467","3","-1.2736359","0.24394226","9.650681","sit down","1"
"90799116096481","3","-1.2975769","0.23916626","9.639908","sit down","1"
"90799136054977","3","-1.2915955","0.2523346","9.631531","sit down","1"
"90799156043990","3","-1.2963715","0.23197937","9.638718","sit down","1"
"90799176033004","3","-1.2844086","0.23796082","9.665054","sit down","1"
"90799195991500","3","-1.3023682","0.2523346","9.673431","sit down","1"
"90799215980514","3","-1.2927856","0.24275208","9.6267395","sit down","1"
"90799235969528","3","-1.2879944","0.21043396","9.630341","sit down","1"
"90799255958541","3","-1.2927856","0.24035645","9.675827","sit down","1"
"90799275947555","3","-1.2975769","0.2523346","9.678223","sit down","1"
"90799295936569","3","-1.2724304","0.2451477","9.623154","sit down","1"
"90799315895065","3","-1.2832031","0.23916626","9.650681","sit down","1"
"90799335884078","3","-1.2796173","0.2451477","9.673431","sit down","1"
"90799355842574","3","-1.2760315","0.22120667","9.602798","sit down","1"
"90799375831588","3","-1.2868042","0.21522522","9.586044","sit down","1"
"90799395820602","3","-1.2987671","0.24035645","9.656677","sit down","1"
"90799415779098","3","-1.2927856","0.24394226","9.671036","sit down","1"
"90799435768112","3","-1.2820129","0.234375","9.617172","sit down","1"
"90799455757125","3","-1.2927856","0.23916626","9.6267395","sit down","1"
"90799475715621","3","-1.2879944","0.24873352","9.671036","sit down","1"
"90799495704635","3","-1.2784271","0.2559204","9.660263","sit down","1"
"90799515693649","3","-1.2891998","0.25112915","9.625549","sit down","1"
"90799535652145","3","-1.2868042","0.2236023","9.648285","sit down","1"
"90799555610641","3","-1.2975769","0.21881104","9.661453","sit down","1"
"90799575599655","3","-1.29039","0.23677063","9.623154","sit down","1"
"90799595588668","3","-1.2808228","0.24275208","9.639908","sit down","1"
"90799615547164","3","-1.2844086","0.23796082","9.659073","sit down","1"
"90799635536178","3","-1.29039","0.2236023","9.642303","sit down","1"
"90799655525192","3","-1.2927856","0.22958374","9.632736","sit down","1"
"90799675514205","3","-1.2808228","0.24035645","9.633926","sit down","1"
"90799695503219","3","-1.2891998","0.24156189","9.651886","sit down","1"
"90799715492233","3","-1.2855988","0.22839355","9.635117","sit down","1"
"90799735481246","3","-1.2855988","0.24156189","9.617172","sit down","1"
"90799755439742","3","-1.2760315","0.2451477","9.638718","sit down","1"
"90799775428756","3","-1.2832031","0.24035645","9.629135","sit down","1"
"90799795417770","3","-1.2868042","0.23077393","9.641113","sit down","1"
"90799815406783","3","-1.2951813","0.24633789","9.653076","sit down","1"
"90799835395797","3","-1.2963715","0.24754333","9.639908","sit down","1"
"90799855384811","3","-1.2868042","0.24873352","9.617172","sit down","1"
"90799875343307","3","-1.2891998","0.22239685","9.631531","sit down","1"
"90799895332321","3","-1.3179321","0.23316956","9.66745","sit down","1"
"90799915290817","3","-1.3011627","0.25112915","9.650681","sit down","1"
"90799935279830","3","-1.2879944","0.25352478","9.633926","sit down","1"
"90799955268844","3","-1.2939911","0.24156189","9.619568","sit down","1"
"90799975227340","3","-1.2999725","0.23316956","9.684204","sit down","1"
"90799995216354","3","-1.2975769","0.27746582","9.735687","sit down","1"
"90800015205367","3","-1.2808228","0.25112915","9.613571","lay down","1"
"90800035163864","3","-1.2736359","0.18409729","9.473511","lay down","1"
"90800055152877","3","-1.3023682","0.14938354","9.641113","lay down","1"
"90800075141891","3","-1.2760315","0.27746582","9.718918","lay down","1"
"90800095130905","3","-1.2987671","0.27148438","9.681808","lay down","1"
"90800115119918","3","-1.2760315","0.22239685","9.516617","lay down","1"
"90800135108932","3","-1.2712402","0.19726562","9.643509","lay down","1"
"90800155067428","3","-1.2832031","0.24156189","9.722519","lay down","1"
"90800175056442","3","-1.2891998","0.2642975","9.632736","lay down","1"
"90800195014938","3","-1.2891998","0.25112915","9.575272","lay down","1"
"90800215003951","3","-1.29039","0.20443726","9.6866","lay down","1"
"90800234992965","3","-1.2796173","0.22958374","9.6662445","lay down","1"
"90800254951461","3","-1.2868042","0.23916626","9.620758","lay down","1"
"90800274940475","3","-1.2844086","0.23796082","9.66745","lay down","1"
"90800294929489","3","-1.2868042","0.23316956","9.677017","lay down","1"
"90800314887985","3","-1.2688446","0.21760559","9.623154","lay down","1"
"90800334876998","3","-1.2724304","0.22000122","9.620758","lay down","1"
"90800354866012","3","-1.2832031","0.23197937","9.655472","lay down","1"
"90800374855026","3","-1.2760315","0.21522522","9.653076","lay down","1"
"90800394844039","3","-1.27005","0.21760559","9.630341","lay down","1"
"90800414833053","3","-1.27005","0.24993896","9.637512","lay down","1"
"90800434791549","3","-1.2927856","0.24275208","9.642303","lay down","1"
"90800454780563","3","-1.2975769","0.21760559","9.679413","lay down","1"
"90800474739059","3","-1.2868042","0.22599792","9.651886","lay down","1"
"90800494728072","3","-1.2868042","0.24633789","9.642303","lay down","1"
"90800514717086","3","-1.2712402","0.2631073","9.641113","lay down","1"
"90800534675582","3","-1.266449","0.28225708","9.609985","lay down","1"
"90800554664596","3","-1.2844086","0.25352478","9.612381","lay down","1"
"90800574653610","3","-1.305954","0.24754333","9.680618","lay down","1"
"90800594612106","3","-1.2688446","0.27148438","9.635117","lay down","1"
"90800614601119","3","-1.2652588","0.27746582","9.605194","lay down","1"
"90800634559615","3","-1.2891998","0.23677063","9.66745","lay down","1"
"90800654518112","3","-1.2532806","0.25473022","9.663849","lay down","1"
"90800674507125","3","-1.2616577","0.2523346","9.56929","lay down","1"
"90800694496139","3","-1.2772217","0.23077393","9.609985","lay down","1"
"90800714485153","3","-1.2844086","0.26550293","9.566895","lay down","1"
"90800734474166","3","-1.2963715","0.24035645","9.706955","lay down","1"
"90800754463180","3","-1.2879944","0.23316956","9.7057495","lay down","1"
"90800774452194","3","-1.2999725","0.23556519","9.571671","lay down","1"
"90800794441207","3","-1.3047638","0.20085144","9.673431","lay down","1"
"90800814399703","3","-1.2616577","0.26669312","9.68779","lay down","1"
"90800834388717","3","-1.2963715","0.24993896","9.680618","lay down","1"
"90800854377731","3","-1.2999725","0.24035645","9.66864","lay down","1"
"90800874336227","3","-1.2939911","0.25831604","9.605194","lay down","1"
"90800894325240","3","-1.2999725","0.24394226","9.702164","lay down","1"
"90800914314254","3","-1.2030029","0.23916626","9.643509","lay down","1"
"90800934272750","3","-1.1455383","0.19606018","9.52739","lay down","1"
"90800954261764","3","-1.2724304","0.13621521","9.624344","lay down","1"
"90800974250778","3","-1.3011627","0.20803833","9.698563","lay down","1"
"90800994239791","3","-1.2736359","0.3145752","9.574066","lay down","1"
"90801014228805","3","-1.2772217","0.3253479","9.548935","lay down","1"
"90801034187301","3","-1.314331","0.2750702","9.577667","lay down","1"
"90801054176315","3","-1.3562317","0.2571106","9.605194","lay down","1"
"90801074165328","3","-1.3083496","0.25950623","9.572876","lay down","1"
"90801094123824","3","-1.226944","0.28105164","9.545334","lay down","1"
"90801114112838","3","-1.1527252","0.2858429","9.602798","lay down","1"
"90801134101852","3","-1.226944","0.22120667","9.631531","lay down","1"
"90801154060348","3","-1.3801727","-0.020614624","9.661453","lay down","1"
"90801174049362","3","-1.3981323","-0.08166504","9.868561","lay down","1"
"90801194038375","3","-1.3562317","0.014099121","9.80751","lay down","1"
"90801213996871","3","-1.3526459","0.008117676","9.82785","lay down","1"
"90801233985885","3","-1.3646088","-0.08166504","9.823074","lay down","1"
"90801253974899","3","-1.2472992","-0.16905212","9.732086","lay down","1"
"90801273963912","3","-1.1826477","-0.073287964","9.791946","lay down","1"
"90801293952926","3","-1.2484894","0.08833313","9.7668","lay down","1"
"90801313911422","3","-1.3251038","-0.051742554","9.699768","lay down","1"
"90801333900436","3","-1.2712402","-0.15827942","9.779968","lay down","1"
"90801353889449","3","-1.2125854","0.022491455","9.637512","lay down","1"
"90801373847946","3","-1.0988617","0.19126892","9.545334","lay down","1"
"90801393836959","3","-1.1096344","0.30021667","9.651886","lay down","1"
"90801413825973","3","-1.2556763","0.2846527","9.7057495","lay down","1"
"90801433784469","3","-1.2520905","0.12423706","9.715332","lay down","1"
"90801453773483","3","-1.2736359","0.05001831","9.60878","lay down","1"
"90801473762496","3","-1.3023682","0.13861084","9.618362","lay down","1"
"90801493720992","3","-1.1778717","0.2966156","9.751236","lay down","1"
"90801513710006","3","-1.0425873","0.22958374","9.559708","lay down","1"
"90801533699020","3","-1.1503296","0.15655518","9.539352","lay down","1"
"90801553688033","3","-1.1611023","0.08833313","9.593231","lay down","1"
"90801573677047","3","-0.9911194","0.13980103","9.517807","lay down","1"
"90801593635543","3","-0.9121094","0.24993896","9.438797","lay down","1"
"90801613624557","3","-0.8247223","0.34570312","9.341827","lay down","1"
"90801633613571","3","-0.8151398","0.3313446","9.394501","lay down","1"
"90801653572067","3","-0.9408417","0.27148438","9.535767","lay down","1"
"90801673561080","3","-0.5865021","0.03565979","8.485901","lay down","1"
"90801693550094","3","-0.7481079","-0.45635986","8.453583","lay down","1"
"90801713508590","3","-2.191803","0.7646942","13.644211","lay down","1"
"90801733467086","3","-0.7277527","0.1876831","9.639908","lay down","1"
"90801753425582","3","0.8380585","-0.7879486","6.6220245","lay down","1"
"90801773414596","3","-1.4783325","0.1876831","8.282394","lay down","1"
"90801793434127","3","-3.9276123","1.0136871","14.273895","lay down","1"
"90801813423141","3","-0.78163147","0.10987854","10.562881","lay down","1"
"90801833412155","3","-0.35305786","-0.33544922","7.177475","lay down","1"
"90801853401168","3","-1.756073","0.23796082","9.207764","lay down","1"
"90801873359664","3","-1.1359711","0.096710205","10.420425","lay down","1"
"90801893348678","3","-0.81274414","0.20922852","10.427597","lay down","1"
"90801913337692","3","-1.2161713","0.22839355","9.413666","lay down","1"
"90801933296188","3","-1.2053986","0.19366455","9.115585","lay down","1"
"90801953285201","3","-0.89056396","0.28225708","9.4878845","lay down","1"
"90801973274215","3","-0.79119873","0.38041687","9.8793335","lay down","1"
"90801993232711","3","-1.2449036","0.22839355","9.493866","lay down","1"
"90802013221725","3","-1.4208832","0.22958374","9.5824585","lay down","1"
"90802033210739","3","-1.0413971","0.31217957","9.663849","lay down","1"
"90802053169235","3","-1.11203","0.2918396","9.659073","lay down","1"
"90802073158248","3","-1.1407623","0.17332458","9.5429535","lay down","1"
"90802093147262","3","-1.11203","0.15655518","9.671036","lay down","1"
"90802113136276","3","-1.1204071","0.19366455","9.803909","lay down","1"
"90802133125289","3","-1.1012573","0.22120667","9.733292","lay down","1"
"90802153083785","3","-1.0952606","0.1876831","9.60759","lay down","1"
"90802173072799","3","-1.1132202","0.16015625","9.6866","lay down","1"
"90802193061813","3","-1.1611023","0.15415955","9.754837","lay down","1"
"90802213020309","3","-1.171875","0.16134644","9.754837","lay down","1"
"90802233009322","3","-1.1287842","0.15415955","9.612381","lay down","1"
"90802252998336","3","-1.1239929","0.12184143","9.583649","lay down","1"
"90802272956832","3","-1.156311","0.11705017","9.659073","lay down","1"
"90802292945846","3","-1.1311798","0.14578247","9.643509","lay down","1"
"90802312934860","3","-1.1192017","0.20085144","9.671036","lay down","1"
"90802332893356","3","-1.0916748","0.23077393","9.598007","lay down","1"
"90802352882369","3","-1.0868835","0.22958374","9.580063","lay down","1"
"90802372871383","3","-1.0473785","0.2164154","9.5872345","lay down","1"
"90802392860397","3","-1.0809021","0.20443726","9.615967","lay down","1"
"90802412849410","3","-1.127594","0.20922852","9.656677","lay down","1"
"90802432838424","3","-1.1395569","0.21881104","9.638718","lay down","1"
"90802452796920","3","-1.11203","0.20205688","9.639908","lay down","1"
"90802472785934","3","-1.127594","0.18649292","9.6662445","lay down","1"
"90802492744430","3","-1.1754761","0.17930603","9.704559","lay down","1"
"90802512733444","3","-1.167099","0.19126892","9.704559","lay down","1"
"90802532722457","3","-1.156311","0.20205688","9.696182","lay down","1"
"90802552680953","3","-1.1287842","0.19247437","9.671036","lay down","1"
"90802572669967","3","-1.127594","0.17211914","9.677017","lay down","1"
"90802592658981","3","-1.1419525","0.1876831","9.683014","lay down","1"
"90802612617477","3","-1.1228027","0.19247437","9.642303","lay down","1"
"90802632606490","3","-1.0952606","0.2056427","9.627945","lay down","1"
"90802652595504","3","-1.092865","0.19966125","9.638718","lay down","1"
"90802672584518","3","-1.1215973","0.19606018","9.632736","lay down","1"
"90802692573531","3","-1.1180115","0.18888855","9.631531","lay down","1"
"90802712532028","3","-1.1096344","0.19247437","9.645905","lay down","1"
"90802732521041","3","-1.1215973","0.19845581","9.639908","lay down","1"
"90802752510055","3","-1.1239929","0.20324707","9.639908","lay down","1"
"90802772468551","3","-1.1239929","0.20085144","9.639908","lay down","1"
"90802792457565","3","-1.1168213","0.1876831","9.665054","lay down","1"
"90802812446578","3","-1.11203","0.18049622","9.665054","lay down","1"
"90802832405074","3","-1.1263885","0.1769104","9.672226","lay down","1"
"90802852394088","3","-1.1383667","0.18049622","9.653076","lay down","1"
"90802872383102","3","-1.1287842","0.18528748","9.663849","lay down","1"
"90802892341598","3","-1.1168213","0.18888855","9.675827","lay down","1"
"90802912330612","3","-1.1215973","0.19366455","9.662659","lay down","1"
"90802932289108","3","-1.1156158","0.20085144","9.66864","lay down","1"
"90802952278121","3","-1.1311798","0.21162415","9.655472","lay down","1"
"90802972267135","3","-1.1263885","0.19966125","9.633926","lay down","1"
"90802992256149","3","-1.127594","0.19487","9.661453","lay down","1"
"90803012245162","3","-1.1108246","0.1876831","9.650681","lay down","1"
"90803032234176","3","-1.0988617","0.17211914","9.657867","lay down","1"
"90803052192672","3","-1.1144257","0.1876831","9.660263","lay down","1"
"90803072181686","3","-1.1228027","0.19007874","9.674622","lay down","1"
"90803092170699","3","-1.1168213","0.19487","9.657867","lay down","1"
"90803112129196","3","-1.1215973","0.19606018","9.650681","lay down","1"
"90803132118209","3","-1.1132202","0.18409729","9.645905","lay down","1"
"90803152107223","3","-1.1192017","0.19845581","9.662659","lay down","1"
"90803172065719","3","-1.1204071","0.19966125","9.654282","lay down","1"
"90803192054733","3","-1.1024475","0.19966125","9.6662445","lay down","1"
"90803212013229","3","-1.1228027","0.1876831","9.644699","lay down","1"
"90803232002242","3","-1.127594","0.18888855","9.639908","lay down","1"
"90803251991256","3","-1.1311798","0.17211914","9.653076","lay down","1"
"90803271949752","3","-1.1359711","0.19966125","9.663849","lay down","1"
"90803291938766","3","-1.1168213","0.20085144","9.665054","lay down","1"
"90803311927780","3","-1.1180115","0.19247437","9.654282","lay down","1"
"90803331916793","3","-1.1263885","0.20324707","9.651886","lay down","1"
"90803351905807","3","-1.1168213","0.19966125","9.64949","lay down","1"
"90803371894821","3","-1.1311798","0.18170166","9.64949","lay down","1"
"90803391853317","3","-1.1204071","0.19726562","9.655472","lay down","1"
"90803411842330","3","-1.1060333","0.19126892","9.657867","lay down","1"
"90803431831344","3","-1.1144257","0.19726562","9.643509","lay down","1"
"90803451789840","3","-1.1180115","0.19487","9.636322","lay down","1"
"90803471778854","3","-1.1192017","0.18528748","9.656677","lay down","1"
"90803491737350","3","-1.127594","0.19606018","9.673431","lay down","1"
"90803511726364","3","-1.1144257","0.19487","9.636322","lay down","1"
"90803531715377","3","-1.1251984","0.18649292","9.641113","lay down","1"
"90803551704391","3","-1.127594","0.19007874","9.650681","lay down","1"
"90803571693405","3","-1.1168213","0.19126892","9.654282","lay down","1"
"90803591682418","3","-1.1263885","0.18888855","9.657867","lay down","1"
"90803611640914","3","-1.127594","0.21043396","9.661453","lay down","1"
"90803631629928","3","-1.1144257","0.19247437","9.648285","lay down","1"
"90803651618942","3","-1.1156158","0.19007874","9.644699","lay down","1"
"90803671577438","3","-1.1156158","0.2056427","9.648285","lay down","1"
"90803691566451","3","-1.108429","0.19247437","9.648285","lay down","1"
"90803711555465","3","-1.1108246","0.19126892","9.665054","lay down","1"
"90803731513961","3","-1.1156158","0.17572021","9.665054","lay down","1"
"90803751502975","3","-1.1239929","0.19007874","9.654282","lay down","1"
"90803771461471","3","-1.1204071","0.19247437","9.645905","lay down","1"
"90803791450485","3","-1.1156158","0.20803833","9.674622","lay down","1"
"90803811439498","3","-1.1048431","0.18528748","9.662659","lay down","1"
"90803831428512","3","-1.1156158","0.20205688","9.648285","lay down","1"
"90803851417526","3","-1.1072388","0.19966125","9.642303","lay down","1"
"90803871376022","3","-1.108429","0.1876831","9.644699","lay down","1"
"90803891365035","3","-1.127594","0.19247437","9.657867","lay down","1"
"90803911354049","3","-1.1251984","0.18528748","9.662659","lay down","1"
"90803931343063","3","-1.1192017","0.18049622","9.673431","lay down","1"
"90803951301559","3","-1.1144257","0.19606018","9.6662445","lay down","1"
"90803971290572","3","-1.1228027","0.20803833","9.66745","lay down","1"
"90803991279586","3","-1.1168213","0.20205688","9.672226","lay down","1"
"90804011238082","3","-1.1228027","0.19366455","9.66745","sit up","1"
"90804031227096","3","-1.1204071","0.19845581","9.651886","sit up","1"
"90804051185592","3","-1.1192017","0.19845581","9.653076","sit up","1"
"90804071174606","3","-1.1311798","0.2164154","9.657867","sit up","1"
"90804091163619","3","-1.1419525","0.20803833","9.650681","sit up","1"
"90804111152633","3","-1.13237","0.19606018","9.643509","sit up","1"
"90804131141647","3","-1.1156158","0.17930603","9.653076","sit up","1"
"90804151130660","3","-1.108429","0.18049622","9.643509","sit up","1"
"90804171089156","3","-1.1156158","0.18170166","9.64949","sit up","1"
"90804191078170","3","-1.1407623","0.18649292","9.669846","sit up","1"
"90804211067184","3","-1.1347656","0.19007874","9.650681","sit up","1"
"90804231025680","3","-1.1144257","0.19845581","9.659073","sit up","1"
"90804251014694","3","-1.1192017","0.21043396","9.660263","sit up","1"
"90804270973190","3","-1.1299744","0.19366455","9.665054","sit up","1"
"90804290962203","3","-1.11203","0.19247437","9.665054","sit up","1"
"90804310951217","3","-1.1180115","0.19247437","9.64949","sit up","1"
"90804330909713","3","-1.1311798","0.19487","9.645905","sit up","1"
"90804350898727","3","-1.1168213","0.18888855","9.645905","sit up","1"
"90804370857223","3","-1.1192017","0.21043396","9.64949","sit up","1"
"90804390846237","3","-1.11203","0.19845581","9.657867","sit up","1"
"90804410835250","3","-1.1251984","0.19845581","9.661453","sit up","1"
"90804430824264","3","-1.1192017","0.19726562","9.641113","sit up","1"
"90804450813278","3","-1.1204071","0.1876831","9.650681","sit up","1"
"90804470771774","3","-1.1287842","0.18649292","9.6662445","sit up","1"
"90804490760787","3","-1.1180115","0.18649292","9.672226","sit up","1"
"90804510749801","3","-1.1156158","0.19247437","9.655472","sit up","1"
"90804530738815","3","-1.1156158","0.19726562","9.66745","sit up","1"
"90804550727828","3","-1.1192017","0.19726562","9.661453","sit up","1"
"90804570686324","3","-1.1228027","0.19366455","9.657867","sit up","1"
"90804590675338","3","-1.1204071","0.17811584","9.64949","sit up","1"
"90804610633834","3","-1.103653","0.19606018","9.653076","sit up","1"
"90804630622848","3","-1.1192017","0.21162415","9.674622","sit up","1"
"90804650611862","3","-1.1204071","0.19726562","9.659073","sit up","1"
"90804670600875","3","-1.1168213","0.20205688","9.644699","sit up","1"
"90804690589889","3","-1.1012573","0.19487","9.645905","sit up","1"
"90804710578903","3","-1.1251984","0.18528748","9.662659","sit up","1"
"90804730537399","3","-1.1168213","0.18049622","9.648285","sit up","1"
"90804750526412","3","-1.1156158","0.19247437","9.638718","sit up","1"
"90804770515426","3","-1.1108246","0.19845581","9.653076","sit up","1"
"90804790473922","3","-1.1144257","0.2056427","9.613571","sit up","1"
"90804810462936","3","-1.1934357","0.21401978","9.678223","sit up","1"
"90804830421432","3","-1.1455383","0.20683289","9.677017","sit up","1"
"90804850410446","3","-1.0892792","0.17930603","9.657867","sit up","1"
"90804870399459","3","-1.1335754","0.19007874","9.657867","sit up","1"
"90804890357955","3","-1.1371613","0.17930603","9.650681","sit up","1"
"90804910346969","3","-1.1192017","0.20085144","9.653076","sit up","1"
"90804930335983","3","-1.187439","0.22718811","9.633926","sit up","1"
"90804950324996","3","-1.2568817","0.20683289","9.697372","sit up","1"
"90804970314010","3","-1.0605469","0.18649292","9.636322","sit up","1"
"90804990303024","3","-1.0785065","0.20324707","9.617172","sit up","1"
"90805010269986","3","-1.1790619","0.21522522","9.655472","sit up","1"
"90805030258999","3","-1.2137756","0.22239685","9.700958","sit up","1"
"90805050248013","3","-1.1730804","0.13261414","9.651886","sit up","1"
"90805070206509","3","-1.1730804","0.10987854","9.621948","sit up","1"
"90805090195523","3","-1.1132202","0.101486206","9.756027","sit up","1"
"90805110154019","3","-1.2472992","0.17811584","9.656677","sit up","1"
"90805130143033","3","-1.1168213","0.118255615","9.902084","sit up","1"
"90805150132046","3","-0.9228821","0.06916809","9.375351","sit up","1"
"90805170090542","3","-1.1934357","0.18649292","9.715332","sit up","1"
"90805190079556","3","-1.0210419","0.12663269","9.685394","sit up","1"
"90805210068570","3","-1.017456","0.15655518","9.583649","sit up","1"
"90805230027066","3","-1.0665283","0.10748291","9.521393","sit up","1"
"90805250016080","3","-1.0809021","0.115859985","9.7847595","sit up","1"
"90805270005093","3","-0.95880127","0.082336426","9.502243","sit up","1"
"90805289994107","3","-1.048584","0.17811584","9.620758","sit up","1"
"90805309983121","3","-1.0521698","0.16134644","9.604004","sit up","1"
"90805329972134","3","-1.0545654","0.1302185","9.60759","sit up","1"
"90805349930630","3","-0.9755554","0.10508728","9.442383","sit up","1"
"90805369919644","3","-1.0820923","0.16494751","9.538162","sit up","1"
"90805389878140","3","-1.1096344","0.22239685","9.595612","sit up","1"
"90805409867154","3","-1.0952606","0.20683289","9.461548","sit up","1"
"90805429856167","3","-1.2425079","0.12663269","9.455551","sit up","1"
"90805449814663","3","-1.3801727","0.044036865","9.703354","sit up","1"
"90805469803677","3","-1.3382721","0.03565979","9.776382","sit up","1"
"90805489792691","3","-1.2676544","0.015304565","9.656677","sit up","1"
"90805509751187","3","-1.2832031","-0.007446289","9.734482","sit up","1"
"90805529740201","3","-1.3251038","0.044036865","9.875748","sit up","1"
"90805549729214","3","-1.314331","0.1194458","9.964325","sit up","1"
"90805569718228","3","-1.2844086","0.09550476","9.875748","sit up","1"
"90805589707242","3","-1.3550415","0.091918945","9.851791","sit up","1"
"90805609696255","3","-1.3107452","0.07875061","9.916443","sit up","1"
"90805629654751","3","-1.2042084","0.087127686","9.716522","sit up","1"
"90805649643765","3","-1.2891998","0.05480957","9.584839","sit up","1"
"90805669602261","3","-1.2413177","0.060791016","9.721313","sit up","1"
