"Timestamp","Accuracy","Acceleration X","Acceleration Y","Acceleration Z","Label","Cycle"
"323031313718973","3","-0.72439265","-0.5907246","9.783222","none","0"
"323031333636056","3","-0.71001977","-0.6458206","9.713753","none","0"
"323031353569754","3","-0.67887855","-0.6266568","9.72573","none","0"
"323031373486838","3","-0.6836695","-0.6266568","9.732917","none","0"
"323031393406785","3","-0.69325143","-0.6338432","9.701775","none","0"
"323031413323869","3","-0.6980424","-0.6290523","9.75208","none","0"
"323031433238035","3","-0.67887855","-0.6338432","9.768848","none","0"
"323031453155119","3","-0.6836695","-0.6410296","9.720939","none","0"
"323031473083713","3","-0.6836695","-0.6338432","9.7089615","none","0"
"323031493000796","3","-0.68606496","-0.62426126","9.723335","none","0"
"323031512926317","3","-0.6692966","-0.62426126","9.754476","none","0"
"323031532843348","3","-0.67648304","-0.6266568","9.7353115","none","0"
"323031552746994","3","-0.6908559","-0.62186587","9.723335","none","0"
"323031572664077","3","-0.6980424","-0.6314477","9.749685","none","0"
"323031592594858","3","-0.68606496","-0.6338432","9.756871","none","0"
"323031612511890","3","-0.68127406","-0.6290523","9.723335","none","0"
"323031632429754","3","-0.6836695","-0.6290523","9.740103","none","0"
"323031652346890","3","-0.69325143","-0.62186587","9.749685","none","0"
"323031672259390","3","-0.68846047","-0.62426126","9.723335","none","0"
"323031692176473","3","-0.68606496","-0.6314477","9.732917","none","0"
"323031712098244","3","-0.6836695","-0.6290523","9.737708","none","0"
"323031732015327","3","-0.67169213","-0.6266568","9.732917","none","0"
"323031751934494","3","-0.71001977","-0.62186587","9.74729","none","0"
"323031771851577","3","-0.70283335","-0.6314477","9.730521","none","0"
"323031791754910","3","-0.68606496","-0.61947036","9.720939","none","0"
"323031811671994","3","-0.68127406","-0.6410296","9.737708","none","0"
"323031831606942","3","-0.67648304","-0.62186587","9.7353115","none","0"
"323031851524025","3","-0.6836695","-0.6122838","9.742498","none","0"
"323031871438400","3","-0.68846047","-0.6266568","9.720939","none","0"
"323031891355483","3","-0.69325143","-0.61707485","9.713753","none","0"
"323031911263296","3","-0.69325143","-0.6338432","9.744894","none","0"
"323031931180379","3","-0.67648304","-0.6290523","9.720939","none","0"
"323031951109442","3","-0.6956469","-0.61707485","9.713753","none","0"
"323031971026473","3","-0.70283335","-0.6314477","9.723335","none","0"
"323031990945015","3","-0.70043784","-0.6290523","9.749685","none","0"
"323032010862046","3","-0.70283335","-0.6266568","9.716147","none","0"
"323032030771421","3","-0.6908559","-0.61947036","9.72573","none","0"
"323032050688504","3","-0.70283335","-0.6338432","9.74729","none","0"
"323032070611473","3","-0.68846047","-0.6386341","9.723335","none","0"
"323032090528556","3","-0.69325143","-0.6314477","9.720939","none","0"
"323032110445431","3","-0.6740876","-0.6338432","9.723335","none","0"
"323032130362463","3","-0.67648304","-0.6290523","9.711357","none","0"
"323032150260692","3","-0.68127406","-0.6266568","9.768848","none","0"
"323032170177775","3","-0.72439265","-0.6050974","9.783222","none","0"
"323032190110275","3","-0.6525283","-0.61707485","9.72573","none","0"
"323032210027358","3","-0.6956469","-0.6434251","9.6562605","none","0"
"323032229960848","3","-0.6501328","-0.6314477","9.718544","none","0"
"323032249877983","3","-0.7196017","-0.61947036","9.764058","none","0"
"323032269770015","3","-0.6956469","-0.62186587","9.756871","none","0"
"323032289687098","3","-0.7148107","-0.6314477","9.754476","none","0"
"323032309619650","3","-0.67887855","-0.6314477","9.759267","none","0"
"323032329536681","3","-0.6692966","-0.6410296","9.713753","none","0"
"323032349453765","3","-0.6740876","-0.6290523","9.680216","none","0"
"323032369380119","3","-0.6836695","-0.6050974","9.768848","none","0"
"323032389297254","3","-0.7172062","-0.61467934","9.77364","none","0"
"323032409191525","3","-0.70283335","-0.6290523","9.696984","none","0"
"323032429108608","3","-0.68127406","-0.6410296","9.718544","none","0"
"323032449026421","3","-0.6740876","-0.6290523","9.744894","none","0"
"323032468943556","3","-0.67169213","-0.6410296","9.72573","none","0"
"323032488859233","3","-0.68846047","-0.60988843","9.732917","none","0"
"323032508776369","3","-0.7124152","-0.61947036","9.766453","none","0"
"323032528704181","3","-0.70283335","-0.6434251","9.749685","none","0"
"323032548621317","3","-0.6621102","-0.6338432","9.716147","none","0"
"323032568532619","3","-0.67648304","-0.6266568","9.749685","none","0"
"323032588449754","3","-0.7076243","-0.61947036","9.75208","none","0"
"323032608386317","3","-0.70043784","-0.6314477","9.732917","none","0"
"323032628303400","3","-0.70043784","-0.62426126","9.74729","none","0"
"323032648210640","3","-0.6956469","-0.6410296","9.740103","none","0"
"323032668127775","3","-0.67169213","-0.6266568","9.723335","none","0"
"323032688034233","3","-0.67887855","-0.6314477","9.730521","none","0"
"323032707951369","3","-0.7124152","-0.6410296","9.75208","none","0"
"323032727868088","3","-0.6836695","-0.6314477","9.756871","none","0"
"323032747785223","3","-0.6836695","-0.6410296","9.720939","none","0"
"323032767705379","3","-0.7124152","-0.6290523","9.740103","none","0"
"323032787622515","3","-0.67887855","-0.602702","9.766453","none","0"
"323032807537306","3","-0.67648304","-0.6386341","9.728126","none","0"
"323032827454442","3","-0.68127406","-0.65779805","9.682611","none","0"
"323032847373035","3","-0.68127406","-0.6122838","9.730521","none","0"
"323032867290171","3","-0.70043784","-0.62186587","9.75208","none","0"
"323032887218556","3","-0.68606496","-0.6362387","9.756871","none","0"
"323032907135640","3","-0.6956469","-0.62426126","9.732917","none","0"
"323032927034546","3","-0.6740876","-0.6266568","9.756871","none","0"
"323032946951577","3","-0.68846047","-0.6314477","9.716147","none","0"
"323032966865640","3","-0.68846047","-0.61467934","9.742498","none","0"
"323032986782723","3","-0.68127406","-0.61947036","9.749685","none","0"
"323033006711838","3","-0.69325143","-0.6362387","9.737708","none","0"
"323033026628921","3","-0.69325143","-0.6386341","9.718544","none","0"
"323033046544546","3","-0.68846047","-0.6290523","9.7353115","none","0"
"323033066461629","3","-0.68606496","-0.6290523","9.744894","none","0"
"323033086411108","3","-0.6908559","-0.6458206","9.704171","none","0"
"323033106328244","3","-0.6692966","-0.6290523","9.732917","none","0"
"323033126229546","3","-0.70283335","-0.6338432","9.72573","none","0"
"323033146146629","3","-0.6525283","-0.6362387","9.687403","none","0"
"323033166073504","3","-0.62138706","-0.6506115","9.728126","none","0"
"323033185990640","3","-0.8441666","-0.5859337","9.855085","none","0"
"323033205890535","3","-0.6165961","-0.5955156","9.816758","none","0"
"323033225807619","3","-0.72199714","-0.6793574","9.59877","none","0"
"323033245716733","3","-0.6022232","-0.6410296","9.675425","none","0"
"323033265633817","3","-0.6740876","-0.58114266","9.823945","none","0"
"323033285568192","3","-0.72439265","-0.6434251","9.74729","none","0"
"323033305485275","3","-0.69325143","-0.6338432","9.696984","none","0"
"323033325384702","3","-0.72199714","-0.6074929","9.79999","none","0"
"323033345301733","3","-0.6501328","-0.65540254","9.744894","none","0"
"323033365255744","3","-0.6956469","-0.6434251","9.617934","none","0"
"323033385172827","3","-0.63575995","-0.6074929","9.756871","none","0"
"323033405073660","3","-0.7291836","-0.61947036","9.838318","none","0"
"323033424990692","3","-0.7196017","-0.66019344","9.74729","none","0"
"323033444890535","3","-0.70283335","-0.6458206","9.675425","none","0"
"323033464807567","3","-0.6501328","-0.62186587","9.742498","none","0"
"323033484742150","3","-0.6621102","-0.6290523","9.720939","none","0"
"323033504659181","3","-0.69325143","-0.62426126","9.69938","none","0"
"323033524574963","3","-0.7124152","-0.6050974","9.776035","none","0"
"323033544491994","3","-0.73157907","-0.6482161","9.778431","none","0"
"323033564427463","3","-0.67169213","-0.6362387","9.692194","none","0"
"323033584344494","3","-0.6477373","-0.62426126","9.704171","none","0"
"323033604248765","3","-0.67887855","-0.60988843","9.75208","none","0"
"323033624165796","3","-0.70283335","-0.61707485","9.730521","none","0"
"323033644083035","3","-0.70043784","-0.62426126","9.728126","none","0"
"323033664000067","3","-0.71001977","-0.6386341","9.771244","none","0"
"323033683916213","3","-0.67648304","-0.6434251","9.7353115","none","0"
"323033703833244","3","-0.67648304","-0.61707485","9.72573","none","0"
"323033723758192","3","-0.6836695","-0.5955156","9.756871","none","0"
"323033743675223","3","-0.72439265","-0.6386341","9.728126","none","0"
"323033763610900","3","-0.70283335","-0.6458206","9.696984","none","0"
"323033783527983","3","-0.6740876","-0.62186587","9.730521","none","0"
"323033803428765","3","-0.67648304","-0.62426126","9.742498","none","0"
"323033823345796","3","-0.68127406","-0.61947036","9.716147","none","0"
"323033843270535","3","-0.7052288","-0.6290523","9.728126","none","0"
"323033863187567","3","-0.70043784","-0.61947036","9.737708","none","0"
"323033883091369","3","-0.7052288","-0.6314477","9.72573","none","0"
"323033903008452","3","-0.67169213","-0.6290523","9.716147","none","0"
"323033922929285","3","-0.66450566","-0.60988843","9.732917","none","0"
"323033942846317","3","-0.66450566","-0.62186587","9.72573","none","0"
"323033962800015","3","-0.70283335","-0.6410296","9.742498","none","0"
"323033982717098","3","-0.7124152","-0.6314477","9.761662","none","0"
"323034002622098","3","-0.67648304","-0.6338432","9.72573","none","0"
"323034022539129","3","-0.67169213","-0.6434251","9.713753","none","0"
"323034042458556","3","-0.6836695","-0.6266568","9.72573","none","0"
"323034062375640","3","-0.6980424","-0.61467934","9.75208","none","0"
"323034082291785","3","-0.70043784","-0.6266568","9.756871","none","0"
"323034102208869","3","-0.7052288","-0.6290523","9.723335","none","0"
"323034122128192","3","-0.6908559","-0.62426126","9.723335","none","0"
"323034142045275","3","-0.6836695","-0.6266568","9.718544","none","0"
"323034161974546","3","-0.69325143","-0.62426126","9.72573","none","0"
"323034181891629","3","-0.7076243","-0.6290523","9.737708","none","0"
"323034201829025","3","-0.68846047","-0.6362387","9.723335","none","0"
"323034221746108","3","-0.67169213","-0.62186587","9.737708","none","0"
"323034241642983","3","-0.67169213","-0.6314477","9.744894","none","0"
"323034261560067","3","-0.68846047","-0.62426126","9.728126","none","0"
"323034281483713","3","-0.69325143","-0.62426126","9.740103","none","0"
"323034301400796","3","-0.6908559","-0.6338432","9.72573","none","0"
"323034321321994","3","-0.6956469","-0.6338432","9.728126","none","0"
"323034341239077","3","-0.6956469","-0.6314477","9.759267","none","0"
"323034361162931","3","-0.68606496","-0.6266568","9.732917","none","0"
"323034381080327","3","-0.67648304","-0.6338432","9.742498","none","0"
"323034400995171","3","-0.6740876","-0.61467934","9.730521","none","0"
"323034420912567","3","-0.6956469","-0.6362387","9.740103","none","0"
"323034440832463","3","-0.6836695","-0.6266568","9.756871","none","0"
"323034460749858","3","-0.6956469","-0.62426126","9.737708","none","0"
"323034480668296","3","-0.69325143","-0.6290523","9.742498","none","0"
"323034500585692","3","-0.68606496","-0.61947036","9.732917","none","0"
"323034520528504","3","-0.6836695","-0.6314477","9.75208","none","0"
"323034540445900","3","-0.68846047","-0.6434251","9.761662","none","0"
"323034560368660","3","-0.69325143","-0.62426126","9.737708","none","0"
"323034580286056","3","-0.68606496","-0.6290523","9.716147","none","0"
"323034600187046","3","-0.67887855","-0.62426126","9.728126","none","0"
"323034620104442","3","-0.68606496","-0.61467934","9.718544","none","0"
"323034640031733","3","-0.7124152","-0.6362387","9.723335","none","0"
"323034659949129","3","-0.6908559","-0.6314477","9.759267","none","0"
"323034679861733","3","-0.6836695","-0.61467934","9.730521","none","0"
"323034699779129","3","-0.68127406","-0.6386341","9.732917","none","0"
"323034719689754","3","-0.6836695","-0.6410296","9.749685","none","0"
"323034739607150","3","-0.6836695","-0.6122838","9.749685","none","0"
"323034759552463","3","-0.68606496","-0.6122838","9.749685","none","0"
"323034779469858","3","-0.6836695","-0.6458206","9.749685","none","0"
"323034799365692","3","-0.7052288","-0.6386341","9.744894","none","0"
"323034819283088","3","-0.68606496","-0.62426126","9.7353115","none","0"
"323034839234077","3","-0.68127406","-0.6314477","9.711357","none","0"
"323034859151473","3","-0.67648304","-0.62426126","9.732917","none","0"
"323034879054650","3","-0.6980424","-0.6314477","9.756871","none","0"
"323034898972046","3","-0.6956469","-0.6290523","9.75208","none","0"
"323034918893921","3","-0.6908559","-0.62426126","9.716147","none","0"
"323034938811317","3","-0.68606496","-0.6362387","9.718544","none","0"
"323034958748608","3","-0.6908559","-0.62426126","9.74729","none","0"
"323034978666004","3","-0.6836695","-0.6338432","9.740103","none","0"
"323034998571369","3","-0.68127406","-0.6290523","9.742498","none","0"
"323035018488765","3","-0.6836695","-0.61947036","9.730521","none","0"
"323035038407567","3","-0.6908559","-0.6362387","9.723335","none","0"
"323035058324963","3","-0.67887855","-0.6338432","9.72573","none","0"
"323035078226629","3","-0.67887855","-0.6386341","9.737708","none","0"
"323035098144025","3","-0.68846047","-0.61947036","9.740103","none","0"
"323035118082983","3","-0.6956469","-0.61947036","9.730521","none","0"
"323035138000379","3","-0.7076243","-0.62186587","9.728126","none","0"
"323035157920431","3","-0.6908559","-0.6290523","9.732917","none","0"
"323035177837827","3","-0.69325143","-0.6290523","9.720939","sit down","0"
"323035197757619","3","-0.6980424","-0.62186587","9.742498","sit down","0"
"323035217675067","3","-0.6836695","-0.6290523","9.737708","sit down","0"
"323035237580275","3","-0.68846047","-0.61947036","9.723335","sit down","0"
"323035257497671","3","-0.69325143","-0.6314477","9.7353115","sit down","0"
"323035277420796","3","-0.6908559","-0.6386341","9.720939","sit down","0"
"323035297338192","3","-0.6836695","-0.6386341","9.7089615","sit down","0"
"323035317289910","3","-0.68127406","-0.62426126","9.7089615","sit down","0"
"323035337207306","3","-0.68127406","-0.62426126","9.75208","sit down","0"
"323035357097827","3","-0.6908559","-0.6386341","9.730521","sit down","0"
"323035377015223","3","-0.6836695","-0.61947036","9.711357","sit down","0"
"323035396934754","3","-0.68846047","-0.6362387","9.749685","sit down","0"
"323035416852410","3","-0.6908559","-0.6290523","9.740103","sit down","0"
"323035436806577","3","-0.6980424","-0.6338432","9.75208","sit down","0"
"323035456724233","3","-0.68846047","-0.6386341","9.7353115","sit down","0"
"323035476616525","3","-0.68127406","-0.6434251","9.713753","sit down","0"
"323035496534181","3","-0.6836695","-0.6314477","9.711357","sit down","0"
"323035516456994","3","-0.70283335","-0.6314477","9.72573","sit down","0"
"323035536374650","3","-0.69325143","-0.6314477","9.732917","sit down","0"
"323035556310171","3","-0.6956469","-0.6290523","9.716147","sit down","0"
"323035576227775","3","-0.6956469","-0.6266568","9.730521","sit down","0"
"323035596138869","3","-0.68127406","-0.62186587","9.732917","sit down","0"
"323035616056525","3","-0.6980424","-0.61707485","9.740103","sit down","0"
"323035636003192","3","-0.68846047","-0.6362387","9.713753","sit down","0"
"323035655920900","3","-0.68606496","-0.6290523","9.692194","sit down","0"
"323035675838608","3","-0.7052288","-0.6314477","9.740103","sit down","0"
"323035695756265","3","-0.68606496","-0.62426126","9.74729","sit down","0"
"323035715657723","3","-0.67887855","-0.6290523","9.740103","sit down","0"
"323035735575379","3","-0.67169213","-0.6314477","9.7353115","sit down","0"
"323035755526317","3","-0.6836695","-0.62186587","9.737708","sit down","0"
"323035775443973","3","-0.7052288","-0.6386341","9.7353115","sit down","0"
"323035795365744","3","-0.6956469","-0.6314477","9.728126","sit down","0"
"323035815283400","3","-0.68846047","-0.61947036","9.737708","sit down","0"
"323035835174963","3","-0.68606496","-0.6338432","9.744894","sit down","0"
"323035855092671","3","-0.6956469","-0.6386341","9.730521","sit down","0"
"323035875040275","3","-0.68127406","-0.6506115","9.706566","sit down","0"
"323035894957931","3","-0.6836695","-0.6410296","9.728126","sit down","0"
"323035914876056","3","-0.68606496","-0.6362387","9.732917","sit down","0"
"323035934793713","3","-0.6956469","-0.6266568","9.737708","sit down","0"
"323035954712827","3","-0.70043784","-0.6290523","9.754476","sit down","0"
"323035974630483","3","-0.6956469","-0.6434251","9.7353115","sit down","0"
"323035994550640","3","-0.6956469","-0.6314477","9.723335","sit down","0"
"323036014468296","3","-0.73157907","-0.6290523","9.7353115","sit down","0"
"323036034386369","3","-0.7052288","-0.61467934","9.730521","sit down","0"
"323036054304025","3","-0.6405509","-0.6266568","9.728126","sit down","0"
"323036074192671","3","-0.6501328","-0.6314477","9.75208","sit down","0"
"323036094110379","3","-0.7794886","-0.6338432","9.776035","sit down","0"
"323036114060327","3","-0.70043784","-0.6410296","9.685007","sit down","0"
"323036133977983","3","-0.5734775","-0.6410296","9.658657","sit down","0"
"323036153871004","3","-0.70283335","-0.62186587","9.828736","sit down","0"
"323036173788713","3","-0.80344343","-0.6122838","9.843109","sit down","0"
"323036193735379","3","-0.65731925","-0.6506115","9.65147","sit down","0"
"323036213653035","3","-0.6740876","-0.61707485","9.644284","sit down","0"
"323036233540692","3","-0.6165961","-0.61947036","9.847899","sit down","0"
"323036253458348","3","-0.7723022","-0.6314477","9.737708","sit down","0"
"323036273401733","3","-0.72199714","-0.6338432","9.6562605","sit down","0"
"323036293319390","3","-0.71001977","-0.61947036","9.7353115","sit down","0"
"323036313244910","3","-0.6525283","-0.6458206","9.732917","sit down","0"
"323036333162567","3","-0.7339746","-0.6314477","9.668239","sit down","0"
"323036353053869","3","-0.66450566","-0.62426126","9.732917","sit down","0"
"323036372971577","3","-0.7172062","-0.6266568","9.732917","sit down","0"
"323036392924598","3","-0.6836695","-0.6362387","9.730521","sit down","0"
"323036412842254","3","-0.67887855","-0.6434251","9.75208","sit down","0"
"323036432726525","3","-0.7148107","-0.61947036","9.718544","sit down","0"
"323036452644546","3","-0.68127406","-0.6338432","9.689797","sit down","0"
"323036472561629","3","-0.74595195","-0.6314477","9.694589","sit down","0"
"323036492479546","3","-0.74355644","-0.62186587","9.720939","sit down","0"
"323036512420067","3","-0.74355644","-0.62186587","9.706566","sit down","0"
"323036532338035","3","-0.7339746","-0.62186587","9.682611","sit down","0"
"323036552238556","3","-0.73157907","-0.6362387","9.687403","sit down","0"
"323036572156525","3","-0.70283335","-0.6386341","9.680216","sit down","0"
"323036592076160","3","-0.67169213","-0.6386341","9.677821","sit down","0"
"323036611994129","3","-0.65731925","-0.6386341","9.711357","sit down","0"
"323036631938140","3","-0.5351498","-0.6003065","9.761662","sit down","0"
"323036651856108","3","-0.571082","-0.62426126","9.785617","sit down","0"
"323036671769025","3","-0.68846047","-0.6122838","9.701775","sit down","0"
"323036691686994","3","-0.70283335","-0.5907246","9.685007","sit down","0"
"323036711574650","3","-0.69325143","-0.6434251","9.711357","sit down","0"
"323036731492567","3","-0.68846047","-0.6745664","9.744894","sit down","0"
"323036751427983","3","-0.74355644","-0.66258895","9.77364","sit down","0"
"323036771345952","3","-0.7842796","-0.61707485","9.778431","sit down","0"
"323036791244650","3","-0.7842796","-0.6434251","9.75208","sit down","0"
"323036811162567","3","-0.85614395","-0.6506115","9.768848","sit down","0"
"323036831077567","3","-0.98070884","-0.65540254","9.723335","sit down","0"
"323036850995483","3","-1.0334094","-0.6841483","9.720939","sit down","0"
"323036870940900","3","-1.0525732","-0.66498446","9.807176","sit down","0"
"323036890839494","3","-1.0142455","-0.66019344","9.811967","sit down","0"
"323036910757358","3","-0.9208219","-0.7152896","9.737708","sit down","0"
"323036930686942","3","-0.846562","-0.74403524","9.723335","sit down","0"
"323036950604910","3","-0.9184264","-0.70091665","9.740103","sit down","0"
"323036970510900","3","-0.95914954","-0.65300703","9.723335","sit down","0"
"323036990428869","3","-0.91603094","-0.66737986","9.723335","sit down","0"
"323037010332202","3","-0.8896806","-0.6889392","9.7089615","sit down","0"
"323037030250171","3","-0.90165806","-0.6769619","9.620329","sit down","0"
"323037050197775","3","-0.91124","-0.66019344","9.548465","sit down","0"
"323037070115744","3","-0.8393756","-0.6721709","9.677821","sit down","0"
"323037089996577","3","-0.85853946","-0.6817528","9.75208","sit down","0"
"323037109914494","3","-0.89926255","-0.6817528","9.668239","sit down","0"
"323037129860588","3","-0.8896806","-0.6793574","9.704171","sit down","0"
"323037149778556","3","-0.8872852","-0.6410296","9.723335","sit down","0"
"323037169704390","3","-0.9088445","-0.6721709","9.720939","sit down","0"
"323037189622358","3","-0.89926255","-0.6721709","9.742498","sit down","0"
"323037209502879","3","-0.9399857","-0.66977537","9.768848","sit down","0"
"323037229420848","3","-1.0046636","-0.6793574","9.713753","sit down","0"
"323037249335223","3","-1.0118501","-0.6745664","9.696984","sit down","0"
"323037269253140","3","-1.0190365","-0.65540254","9.764058","sit down","0"
"323037289185067","3","-1.0453868","-0.6769619","9.780826","sit down","0"
"323037309103035","3","-1.1004827","-0.66498446","9.692194","sit down","0"
"323037329000015","3","-1.1124601","-0.6458206","9.716147","sit down","0"
"323037348917983","3","-1.1292286","-0.6482161","9.804781","sit down","0"
"323037368849650","3","-1.1555787","-0.66258895","9.749685","sit down","0"
"323037388767619","3","-1.1675562","-0.6841483","9.718544","sit down","0"
"323037408680431","3","-1.1388104","-0.6769619","9.807176","sit down","0"
"323037428598400","3","-1.1004827","-0.66258895","9.797595","sit down","0"
"323037448538921","3","-1.1100647","-0.65540254","9.670634","sit down","0"
"323037468456890","3","-1.1196465","-0.6410296","9.634702","sit down","0"
"323037488351108","3","-1.0932963","-0.65540254","9.701775","sit down","0"
"323037508269025","3","-1.0741324","-0.65300703","9.668239","sit down","0"
"323037528215327","3","-1.0932963","-0.66498446","9.670634","sit down","0"
"323037548133296","3","-1.0837145","-0.66258895","9.69938","sit down","0"
"323037568056473","3","-1.0693415","-0.65779805","9.668239","sit down","0"
"323037587974442","3","-1.0405958","-0.65300703","9.646679","sit down","0"
"323037607889858","3","-1.0501777","-0.65300703","9.668239","sit down","0"
"323037627807879","3","-1.0597596","-0.66498446","9.680216","sit down","0"
"323037647724285","3","-1.0573641","-0.66737986","9.682611","sit down","0"
"323037667642254","3","-1.0645506","-0.66258895","9.711357","sit down","0"
"323037687563244","3","-1.0453868","-0.66737986","9.737708","sit down","0"
"323037707481160","3","-1.0837145","-0.66258895","9.716147","sit down","0"
"323037727397827","3","-1.1124601","-0.66498446","9.711357","sit down","0"
"323037747315796","3","-1.126833","-0.6721709","9.737708","sit down","0"
"323037767199806","3","-1.1172512","-0.66258895","9.728126","sit down","0"
"323037787117775","3","-1.1244376","-0.65540254","9.689797","sit down","0"
"323037807041004","3","-1.1340195","-0.66258895","9.706566","sit down","0"
"323037826958921","3","-1.1507878","-0.6506115","9.74729","sit down","0"
"323037846904963","3","-1.1244376","-0.66498446","9.732917","sit down","0"
"323037866822931","3","-1.1124601","-0.66498446","9.730521","sit down","0"
"323037886745952","3","-1.1244376","-0.6458206","9.728126","sit down","0"
"323037906663921","3","-1.1100647","-0.6482161","9.696984","sit down","0"
"323037926550588","3","-1.1052737","-0.66498446","9.732917","sit down","0"
"323037946468504","3","-1.1052737","-0.65300703","9.696984","sit down","0"
"323037966414129","3","-1.1244376","-0.6506115","9.665843","sit down","0"
"323037986331994","3","-1.0909009","-0.6482161","9.67303","sit down","0"
"323038006253817","3","-1.1028782","-0.6458206","9.689797","sit down","0"
"323038026171681","3","-1.0861099","-0.66258895","9.685007","sit down","0"
"323038046065379","3","-1.0861099","-0.6506115","9.69938","sit down","0"
"323038065983192","3","-1.1004827","-0.65779805","9.704171","sit down","0"
"323038085897723","3","-1.1052737","-0.6482161","9.696984","sit down","0"
"323038105815640","3","-1.1100647","-0.6482161","9.689797","sit down","0"
"323038125754963","3","-1.1196465","-0.6482161","9.665843","sit down","0"
"323038145672827","3","-1.1172512","-0.6745664","9.7089615","sit down","0"
"323038165580483","3","-1.1028782","-0.66977537","9.723335","sit down","0"
"323038185499598","3","-1.1076692","-0.66019344","9.680216","sit down","0"
"323038205404338","3","-1.1124601","-0.66019344","9.701775","sit down","0"
"323038225322202","3","-1.1196465","-0.65540254","9.694589","sit down","0"
"323038245280900","3","-1.1148556","-0.65540254","9.7353115","sit down","0"
"323038265198765","3","-1.1100647","-0.66737986","9.72573","sit down","0"
"323038285107775","3","-1.1076692","-0.65300703","9.713753","sit down","0"
"323038305025640","3","-1.1004827","-0.65540254","9.728126","sit down","0"
"323038324946004","3","-1.1196465","-0.65779805","9.728126","sit down","0"
"323038344863869","3","-1.1100647","-0.6482161","9.720939","sit down","0"
"323038364778817","3","-1.1172512","-0.66737986","9.713753","sit down","0"
"323038384696681","3","-1.1124601","-0.6721709","9.704171","sit down","0"
"323038404610848","3","-1.1076692","-0.6793574","9.65147","sit down","0"
"323038424528713","3","-1.1076692","-0.65779805","9.704171","sit down","0"
"323038444406004","3","-1.0956918","-0.65300703","9.701775","sit down","0"
"323038464323869","3","-1.0909009","-0.6506115","9.658657","sit down","0"
"323038484275119","3","-1.0909009","-0.6841483","9.67303","sit down","0"
"323038504192983","3","-1.0956918","-0.66498446","9.701775","sit down","0"
"323038524082723","3","-1.1004827","-0.65540254","9.704171","sit down","0"
"323038544000640","3","-1.1004827","-0.66977537","9.692194","sit down","0"
"323038563955431","3","-1.0980873","-0.66019344","9.730521","sit down","0"
"323038583873296","3","-1.1172512","-0.66258895","9.713753","sit down","0"
"323038603791994","3","-1.1220421","-0.65540254","9.706566","sit down","0"
"323038623709858","3","-1.0980873","-0.65300703","9.711357","sit down","0"
"323038643631004","3","-1.1100647","-0.65540254","9.728126","sit down","0"
"323038663548869","3","-1.1148556","-0.6434251","9.728126","sit down","0"
"323038683467463","3","-1.1124601","-0.66977537","9.732917","sit down","0"
"323038703385327","3","-1.1100647","-0.6482161","9.706566","sit down","0"
"323038723278973","3","-1.1100647","-0.66258895","9.728126","sit down","0"
"323038743196838","3","-1.1100647","-0.66019344","9.716147","sit down","0"
"323038763101629","3","-1.1052737","-0.6745664","9.701775","sit down","0"
"323038783019494","3","-1.0980873","-0.65779805","9.701775","sit down","0"
"323038802946421","3","-1.0956918","-0.6506115","9.685007","sit down","0"
"323038822864285","3","-1.0980873","-0.66019344","9.706566","sit down","0"
"323038842788713","3","-1.1004827","-0.65779805","9.716147","sit down","0"
"323038862706577","3","-1.0956918","-0.65540254","9.689797","sit down","0"
"323038882614702","3","-1.0956918","-0.6506115","9.694589","sit down","0"
"323038902532567","3","-1.0932963","-0.6482161","9.720939","sit down","0"
"323038922449650","3","-1.0885054","-0.66498446","9.718544","sit down","0"
"323038942367515","3","-1.1004827","-0.66498446","9.718544","sit down","0"
"323038962308192","3","-1.1028782","-0.66019344","9.704171","sit down","0"
"323038982226056","3","-1.1028782","-0.65540254","9.696984","sit down","0"
"323039002108348","3","-1.1004827","-0.65300703","9.694589","sit down","0"
"323039022026265","3","-1.1052737","-0.6482161","9.704171","sit down","0"
"323039041948035","3","-1.1100647","-0.66737986","9.69938","sit down","0"
"323039061865900","3","-1.1124601","-0.66737986","9.718544","sit down","0"
"323039081794025","3","-1.1196465","-0.6458206","9.72573","sit down","0"
"323039101711942","3","-1.136415","-0.6482161","9.728126","sit down","0"
"323039121628973","3","-1.1052737","-0.66258895","9.713753","sit down","0"
"323039141546838","3","-1.1196465","-0.66498446","9.706566","sit down","0"
"323039161448556","3","-1.1052737","-0.6434251","9.72573","sit down","0"
"323039181366369","3","-1.0932963","-0.6434251","9.72573","lay down","0"
"323039201282983","3","-1.1100647","-0.65779805","9.704171","lay down","0"
"323039221200848","3","-1.1028782","-0.66977537","9.713753","lay down","0"
"323039241118504","3","-1.0956918","-0.66498446","9.701775","lay down","0"
"323039261036369","3","-1.1028782","-0.65540254","9.72573","lay down","0"
"323039280985848","3","-1.1100647","-0.6458206","9.72573","lay down","0"
"323039300903660","3","-1.1076692","-0.6506115","9.687403","lay down","0"
"323039320789806","3","-1.1172512","-0.6482161","9.687403","lay down","0"
"323039340707619","3","-1.1196465","-0.6458206","9.706566","lay down","0"
"323039360638452","3","-1.1172512","-0.6506115","9.680216","lay down","0"
"323039380556265","3","-1.1148556","-0.66019344","9.685007","lay down","0"
"323039400494390","3","-1.1220421","-0.66258895","9.72573","lay down","0"
"323039420412150","3","-1.1100647","-0.66258895","9.685007","lay down","0"
"323039440300015","3","-1.1148556","-0.6721709","9.720939","lay down","0"
"323039460217827","3","-1.0837145","-0.66737986","9.72573","lay down","0"
"323039480137619","3","-1.071737","-0.66019344","9.711357","lay down","0"
"323039500055483","3","-1.0789235","-0.66019344","9.682611","lay down","0"
"323039519990379","3","-1.136415","-0.66977537","9.67303","lay down","0"
"323039539908192","3","-1.1579742","-0.66737986","9.723335","lay down","0"
"323039559814442","3","-1.1388104","-0.66737986","9.728126","lay down","0"
"323039579732254","3","-1.0932963","-0.66498446","9.696984","lay down","0"
"323039599636577","3","-1.0980873","-0.6769619","9.644284","lay down","0"
"323039619554390","3","-1.1100647","-0.7128941","9.617934","lay down","0"
"323039639499806","3","-1.1459968","-0.70091665","9.764058","lay down","0"
"323039659417619","3","-1.126833","-0.6506115","9.761662","lay down","0"
"323039679302098","3","-1.0837145","-0.66258895","9.62512","lay down","0"
"323039699219963","3","-1.0549687","-0.6793574","9.701775","lay down","0"
"323039719135067","3","-1.0789235","-0.6458206","9.783222","lay down","0"
"323039739052879","3","-1.0645506","-0.597911","9.7089615","lay down","0"
"323039758986317","3","-1.0909009","-0.6266568","9.713753","lay down","0"
"323039778904129","3","-1.1723471","-0.6338432","9.759267","lay down","0"
"323039798799702","3","-1.1627653","-0.6003065","9.704171","lay down","0"
"323039818717567","3","-1.1292286","-0.6410296","9.74729","lay down","0"
"323039838631317","3","-1.0956918","-0.6769619","9.704171","lay down","0"
"323039858549181","3","-1.1220421","-0.65540254","9.562838","lay down","0"
"323039878493556","3","-1.1819291","-0.5859337","9.7089615","lay down","0"
"323039898411369","3","-1.2394205","-0.6362387","9.768848","lay down","0"
"323039918295223","3","-1.2657708","-0.66498446","9.62991","lay down","0"
"323039938213035","3","-1.1507878","-0.66737986","9.771244","lay down","0"
"323039958154754","3","-1.1028782","-0.6434251","9.756871","lay down","0"
"323039978072567","3","-1.131624","-0.6290523","9.584397","lay down","0"
"323039997991838","3","-1.1843245","-0.66498446","9.620329","lay down","0"
"323040017909598","3","-1.1891155","-0.6458206","9.809572","lay down","0"
"323040037787150","3","-1.1220421","-0.6721709","9.831131","lay down","0"
"323040057705015","3","-1.0741324","-0.7152896","9.639493","lay down","0"
"323040077652983","3","-1.071737","-0.6721709","9.644284","lay down","0"
"323040097570744","3","-1.0693415","-0.5883291","9.855085","lay down","0"
"323040117454025","3","-1.131624","-0.5452105","9.759267","lay down","0"
"323040137371838","3","-1.18672","-0.602702","9.562838","lay down","0"
"323040157306994","3","-1.1412059","-0.58114266","9.593979","lay down","0"
"323040177224806","3","-1.1148556","-0.57874715","9.77364","lay down","0"
"323040197139546","3","-1.1028782","-0.6050974","9.69938","lay down","0"
"323040217057358","3","-1.1555787","-0.6386341","9.601165","lay down","0"
"323040236968660","3","-1.2346295","-0.66258895","9.649075","lay down","0"
"323040256886473","3","-1.337635","-0.6841483","9.749685","lay down","0"
"323040276769963","3","-1.3615899","-0.66737986","9.732917","lay down","0"
"323040296687515","3","-1.2513978","-0.6458206","9.5436735","lay down","0"
"323040316631265","3","-0.9974772","-0.6050974","9.505346","lay down","0"
"323040336548765","3","-0.8729123","-0.602702","9.730521","lay down","0"
"323040356460588","3","-0.95914954","-0.602702","9.931741","lay down","0"
"323040376378088","3","-1.0453868","-0.48771903","9.768848","lay down","0"
"323040396277671","3","-1.1843245","-0.4302275","9.601165","lay down","0"
"323040416195171","3","-1.1651607","-0.5452105","9.452646","lay down","0"
"323040436124338","3","-1.1076692","-0.6290523","9.4646225","lay down","0"
"323040456041838","3","-1.2082794","-0.66977537","9.644284","lay down","0"
"323040475927098","3","-1.2322341","-0.73684883","9.682611","lay down","0"
"323040495844546","3","-1.3136804","-0.83506346","9.57721","lay down","0"
"323040515754546","3","-1.2274431","-0.8039222","9.653866","lay down","0"
"323040535672046","3","-1.3088894","-0.8135042","9.759267","lay down","0"
"323040555608660","3","-1.4047086","-0.70570755","9.701775","lay down","0"
"323040575526160","3","-1.4094994","-0.83266795","9.692194","lay down","0"
"323040595416942","3","-1.3783584","-0.95244193","9.859877","lay down","0"
"323040615334442","3","-1.3184713","-0.79434025","9.950905","lay down","0"
"323040635246681","3","-1.2945166","-0.78236294","9.740103","lay down","0"
"323040655164233","3","-1.2298386","-0.7991313","9.639493","lay down","0"
"323040675076421","3","-1.1819291","-0.7775719","9.500555","lay down","0"
"323040694993921","3","-1.2897255","-0.87099564","9.390363","lay down","0"
"323040714943296","3","-1.4454317","-0.8111087","9.646679","lay down","0"
"323040734860848","3","-1.4334543","-0.7991313","10.027561","lay down","0"
"323040754742306","3","-1.3903357","-0.8039222","10.274295","lay down","0"
"323040774659806","3","-1.402313","-0.84464526","9.984442","lay down","0"
"323040794612983","3","-1.3496125","-0.6937301","9.852691","lay down","0"
"323040814530535","3","-1.2945166","-0.5955156","9.934136","lay down","0"
"323040834439494","3","-1.4262679","-0.7104986","9.737708","lay down","0"
"323040854357046","3","-1.6083243","-0.6865438","9.560442","lay down","0"
"323040874240692","3","-1.6226971","-0.6003065","9.593979","lay down","0"
"323040894158192","3","-1.5005276","-0.6314477","9.641888","lay down","0"
"323040914092410","3","-1.2346295","-0.70091665","9.59877","lay down","0"
"323040934009963","3","-1.1196465","-0.6386341","9.467019","lay down","0"
"323040953926473","3","-1.1771381","-0.6410296","9.3855715","lay down","0"
"323040973843973","3","-1.1579742","-0.73924434","9.538883","lay down","0"
"323040993772254","3","-1.2106748","-0.79434025","9.680216","lay down","0"
"323041013689806","3","-1.1915109","-0.7584082","9.668239","lay down","0"
"323041033566577","3","-1.0813189","-0.6721709","9.514928","lay down","0"
"323041053484129","3","-1.0885054","-0.7296624","9.469414","lay down","0"
"323041073429494","3","-1.2130703","-0.83506346","9.57242","lay down","0"
"323041093346994","3","-1.296912","-0.75361717","9.57242","lay down","0"
"323041113229598","3","-1.2250476","-0.66977537","9.608352","lay down","0"
"323041133147098","3","-1.1723471","-0.6769619","9.613143","lay down","0"
"323041153059754","3","-1.1579742","-0.7248714","9.586792","lay down","0"
"323041172977254","3","-1.2058839","-0.73924434","9.646679","lay down","0"
"323041192913660","3","-1.2825391","-0.70570755","9.737708","lay down","0"
"323041212831160","3","-1.306494","-0.7320578","9.742498","lay down","0"
"323041232722150","3","-1.3472171","-0.75122166","9.766453","lay down","0"
"323041252639650","3","-1.4190814","-0.7248714","9.756871","lay down","0"
"323041272552775","3","-1.4933412","-0.7320578","9.807176","lay down","0"
"323041292470327","3","-1.4813639","-0.7272669","9.907787","lay down","0"
"323041312412619","3","-1.4502226","-0.74403524","9.79999","lay down","0"
"323041332330119","3","-1.5029233","-0.78475845","9.661052","lay down","0"
"323041352211421","3","-1.5388553","-0.70810306","9.649075","lay down","0"
"323041372128921","3","-1.5580192","-0.6434251","9.622725","lay down","0"
"323041392042358","3","-1.5412508","-0.6889392","9.706566","lay down","0"
"323041411959858","3","-1.4094994","-0.6817528","9.72573","lay down","0"
"323041431903452","3","-1.4382453","-0.70331216","9.586792","lay down","0"
"323041451821004","3","-1.4693866","-0.70570755","9.675425","lay down","0"
"323041471700848","3","-1.4190814","-0.6937301","9.761662","lay down","0"
"323041491618348","3","-1.4358497","-0.6266568","9.72573","lay down","0"
"323041511528973","3","-1.4382453","-0.6817528","9.7089615","lay down","0"
"323041531446108","3","-1.4382453","-0.5595834","9.608352","lay down","0"
"323041551380119","3","-1.5053186","-0.4302275","9.519719","lay down","0"
"323041571297202","3","-1.7568438","-0.53083766","9.75208","lay down","0"
"323041591191629","3","-1.7233071","-0.61467934","9.845504","lay down","0"
"323041611108713","3","-1.5029233","-0.76799","9.62512","lay down","0"
"323041631019546","3","-1.3999176","-0.8590182","9.522115","lay down","0"
"323041650936629","3","-1.411895","-0.8206905","9.766453","lay down","0"
"323041670855327","3","-1.5005276","-0.8949504","9.879041","lay down","0"
"323041690772410","3","-1.5532281","-0.87339103","9.72573","lay down","0"
"323041710710067","3","-1.5364599","-0.7799674","9.608352","lay down","0"
"323041730627150","3","-1.371172","-0.7152896","9.510137","lay down","0"
"323041750539442","3","-1.2058839","-0.6769619","9.531696","lay down","0"
"323041770456577","3","-1.2034883","-0.6961256","9.562838","lay down","0"
"323041790369285","3","-1.3352396","-0.7248714","9.452646","lay down","0"
"323041810286421","3","-1.471782","-0.73924434","9.529301","lay down","0"
"323041830198973","3","-1.567601","-0.6937301","9.795198","lay down","0"
"323041850116056","3","-1.6298835","-0.6122838","9.970069","lay down","0"
"323041870032775","3","-1.6298835","-0.58114266","10.010792","lay down","0"
"323041889949910","3","-1.567601","-0.6074929","9.893414","lay down","0"
"323041909861994","3","-1.512505","-0.6362387","9.742498","lay down","0"
"323041929779077","3","-1.4334543","-0.61467934","9.658657","lay down","0"
"323041949691421","3","-1.3448216","-0.61707485","9.613143","lay down","0"
"323041969608556","3","-1.2657708","-0.6506115","9.534092","lay down","0"
"323041989525223","3","-1.2705617","-0.65779805","9.5173235","lay down","0"
"323042009442358","3","-1.2609799","-0.6745664","9.565233","lay down","0"
"323042029353660","3","-1.2537935","-0.7200804","9.555651","lay down","0"
"323042049270796","3","-1.246607","-0.73924434","9.486182","lay down","0"
"323042069188973","3","-1.3040984","-0.7296624","9.4909725","lay down","0"
"323042089106108","3","-1.3544035","-0.6889392","9.641888","lay down","0"
"323042109022046","3","-1.4047086","-0.6817528","9.744894","lay down","0"
"323042128939181","3","-1.4166859","-0.6793574","9.754476","lay down","0"
"323042148820379","3","-1.4286633","-0.6817528","9.720939","lay down","0"
"323042168737463","3","-1.4550136","-0.6793574","9.67303","lay down","0"
"323042188651577","3","-1.4550136","-0.6721709","9.7089615","lay down","0"
"323042208568660","3","-1.4262679","-0.66019344","9.792804","lay down","0"
"323042228505692","3","-1.4094994","-0.6506115","9.744894","lay down","0"
"323042248422775","3","-1.3999176","-0.6721709","9.72573","lay down","0"
"323042268334181","3","-1.3951266","-0.66019344","9.754476","lay down","0"
"323042288251265","3","-1.3879402","-0.6386341","9.7089615","lay down","0"
"323042308136421","3","-1.3807538","-0.6458206","9.677821","lay down","0"
"323042328053556","3","-1.3903357","-0.65540254","9.706566","lay down","0"
"323042347982150","3","-1.3951266","-0.65300703","9.696984","lay down","0"
"323042367899233","3","-1.3879402","-0.66019344","9.670634","lay down","0"
"323042387793088","3","-1.3783584","-0.66737986","9.653866","lay down","0"
"323042407710223","3","-1.3615899","-0.66737986","9.627516","lay down","0"
"323042427620588","3","-1.3544035","-0.6937301","9.620329","lay down","0"
"323042447537619","3","-1.3759627","-0.70570755","9.608352","lay down","0"
"323042467478192","3","-1.3759627","-0.6793574","9.646679","lay down","0"
"323042487395275","3","-1.3855448","-0.6817528","9.665843","lay down","0"
"323042507276681","3","-1.3783584","-0.70331216","9.682611","lay down","0"
"323042527193817","3","-1.4047086","-0.6937301","9.730521","lay down","0"
"323042547142827","3","-1.407104","-0.6721709","9.723335","lay down","0"
"323042567059650","3","-1.402313","-0.66019344","9.706566","lay down","0"
"323042586965796","3","-1.4094994","-0.66737986","9.680216","lay down","0"
"323042606882619","3","-1.407104","-0.66258895","9.711357","lay down","0"
"323042626766369","3","-1.3951266","-0.66498446","9.716147","lay down","0"
"323042646683192","3","-1.3783584","-0.6386341","9.706566","lay down","0"
"323042666596265","3","-1.3879402","-0.65540254","9.704171","lay down","0"
"323042686513088","3","-1.3927312","-0.66977537","9.689797","lay down","0"
"323042706456890","3","-1.3855448","-0.66019344","9.658657","lay down","0"
"323042726373713","3","-1.3903357","-0.66019344","9.65147","lay down","0"
"323042746269338","3","-1.3831493","-0.6745664","9.646679","lay down","0"
"323042766186160","3","-1.3855448","-0.6889392","9.658657","lay down","0"
"323042786094390","3","-1.3999176","-0.6817528","9.677821","lay down","0"
"323042806011160","3","-1.3951266","-0.6745664","9.675425","lay down","0"
"323042825953504","3","-1.3999176","-0.6817528","9.675425","lay down","0"
"323042845870327","3","-1.3951266","-0.66977537","9.696984","lay down","0"
"323042865748608","3","-1.402313","-0.66019344","9.680216","lay down","0"
"323042885665431","3","-1.4047086","-0.66498446","9.685007","lay down","0"
"323042905579442","3","-1.3879402","-0.6482161","9.689797","lay down","0"
"323042925496265","3","-1.3807538","-0.6745664","9.670634","lay down","0"
"323042945411421","3","-1.4094994","-0.6745664","9.704171","lay down","0"
"323042965328244","3","-1.3999176","-0.66258895","9.706566","lay down","0"
"323042985263973","3","-1.3903357","-0.66019344","9.680216","lay down","0"
"323043005180796","3","-1.402313","-0.66737986","9.6562605","lay down","0"
"323043025096838","3","-1.3999176","-0.6865438","9.661052","lay down","0"
"323043045013660","3","-1.3831493","-0.6793574","9.653866","lay down","0"
"323043064932098","3","-1.3831493","-0.6841483","9.685007","lay down","0"
"323043084848817","3","-1.3903357","-0.66737986","9.7089615","lay down","0"
"323043104765640","3","-1.3783584","-0.66737986","9.680216","lay down","0"
"323043124677879","3","-1.4094994","-0.66019344","9.653866","lay down","0"
"323043144594702","3","-1.411895","-0.6745664","9.694589","lay down","0"
"323043164495535","3","-1.3975221","-0.6769619","9.685007","lay down","0"
"323043184412358","3","-1.3807538","-0.66258895","9.668239","sit up","0"
"323043204328608","3","-1.3783584","-0.66977537","9.661052","sit up","0"
"323043224245431","3","-1.3903357","-0.66977537","9.689797","sit up","0"
"323043244159233","3","-1.3831493","-0.66498446","9.685007","sit up","0"
"323043264076056","3","-1.3975221","-0.66258895","9.689797","sit up","0"
"323043284007306","3","-1.3975221","-0.66019344","9.694589","sit up","0"
"323043303924129","3","-1.3951266","-0.66258895","9.687403","sit up","0"
"323043323822879","3","-1.4047086","-0.66737986","9.67303","sit up","0"
"323043343739702","3","-1.3999176","-0.6769619","9.682611","sit up","0"
"323043363690015","3","-1.3927312","-0.66737986","9.6562605","sit up","0"
"323043383606838","3","-1.3999176","-0.6793574","9.675425","sit up","0"
"323043403515483","3","-1.3903357","-0.66737986","9.658657","sit up","0"
"323043423432306","3","-1.3831493","-0.66977537","9.661052","sit up","0"
"323043443348140","3","-1.4094994","-0.6721709","9.685007","sit up","0"
"323043463264963","3","-1.3927312","-0.66977537","9.685007","sit up","0"
"323043483181629","3","-1.3903357","-0.65300703","9.680216","sit up","0"
"323043503098452","3","-1.3807538","-0.65300703","9.675425","sit up","0"
"323043523013869","3","-1.3951266","-0.65300703","9.670634","sit up","0"
"323043542930692","3","-1.3975221","-0.62186587","9.634702","sit up","0"
"323043562851733","3","-1.3759627","-0.6362387","9.593979","sit up","0"
"323043582768556","3","-1.3975221","-0.6817528","9.613143","sit up","0"
"323043602673504","3","-1.402313","-0.6745664","9.663447","sit up","0"
"323043622590327","3","-1.4238724","-0.65779805","9.500555","sit up","0"
"323043642503817","3","-1.4693866","-0.6410296","9.378386","sit up","0"
"323043662420640","3","-1.4741774","-0.70331216","9.613143","sit up","0"
"323043682330067","3","-1.4262679","-0.8470408","9.804781","sit up","0"
"323043702246890","3","-1.3951266","-0.823086","9.737708","sit up","0"
"323043722169025","3","-1.3544035","-0.56676984","9.732917","sit up","0"
"323043742085848","3","-1.3352396","-0.58114266","9.795198","sit up","0"
"323043761979442","3","-1.4334543","-0.70331216","9.732917","sit up","0"
"323043781896160","3","-1.5508327","-0.74163973","9.615538","sit up","0"
"323043801795327","3","-1.5915558","-0.74163973","9.766453","sit up","0"
"323043821712150","3","-1.6658156","-0.6793574","9.895809","sit up","0"
"323043841625952","3","-1.6298835","-0.70331216","9.759267","sit up","0"
"323043861542775","3","-1.4981322","-0.7655945","9.567629","sit up","0"
"323043881476160","3","-1.4238724","-0.73924434","9.529301","sit up","0"
"323043901392983","3","-1.4286633","-0.7104986","9.4239","sit up","0"
"323043921284963","3","-1.4214768","-0.66019344","9.330476","sit up","0"
"323043941201785","3","-1.3927312","-0.6386341","9.354431","sit up","0"
"323043961130588","3","-1.3951266","-0.65300703","9.373595","sit up","0"
"323043981047410","3","-1.457409","-0.7152896","9.39755","sit up","0"
"323044000961681","3","-1.6107197","-0.82548153","9.426295","sit up","0"
"323044020878504","3","-1.797567","-0.96202374","9.596374","sit up","0"
"323044040771004","3","-1.9868098","-0.9763967","9.828736","sit up","0"
"323044060687827","3","-2.1161656","-0.9548373","9.950905","sit up","0"
"323044080595483","3","-2.1209567","-0.9955605","9.879041","sit up","0"
"323044100512306","3","-2.0490923","-1.0290972","9.77364","sit up","0"
"323044120421994","3","-1.9963918","-1.0338882","9.780826","sit up","0"
"323044140338817","3","-2.0155556","-0.96681476","9.869459","sit up","0"
"323044160252931","3","-1.9820188","-0.92369616","9.790408","sit up","0"
"323044180169754","3","-1.9652505","-0.8949504","9.538883","sit up","0"
"323044200115848","3","-1.9580641","-0.8638091","9.546069","sit up","0"
"323044220032671","3","-1.9892052","-0.8135042","9.833527","sit up","0"
"323044239903713","3","-2.0323238","-0.8518318","9.965278","sit up","0"
"323044259820535","3","-2.0562787","-0.823086","9.7353115","sit up","0"
"323044279763244","3","-2.063465","-0.772781","9.560442","sit up","0"
"323044299680067","3","-1.9341092","-0.7560127","9.589188","sit up","0"
"323044319558088","3","-1.8646404","-0.82548153","9.627516","sit up","0"
"323044339474910","3","-1.907759","-0.83027244","9.613143","sit up","0"
"323044359388192","3","-1.8718269","-0.772781","9.536487","sit up","0"
"323044379305015","3","-1.7640303","-0.717685","9.565233","sit up","0"
"323044399238452","3","-1.6226971","-0.70810306","9.550859","sit up","0"
"323044419155275","3","-1.5939513","-0.7344533","9.30652","sit up","0"
"323044439050067","3","-1.6059287","-0.74882615","9.110092","sit up","0"
"323044458966890","3","-1.6298835","-0.7655945","9.347245","sit up","0"
"323044478910119","3","-1.6466519","-0.823086","9.627516","sit up","0"
"323044498826942","3","-1.7496574","-0.8542273","9.531696","sit up","0"
"323044518747202","3","-1.8814087","-0.87578654","9.481391","sit up","0"
"323044538664025","3","-1.9436913","-0.86860013","9.637098","sit up","0"
"323044558547515","3","-1.9844143","-0.82548153","9.689797","sit up","0"
"323044578464338","3","-1.9365047","-0.82787704","9.653866","sit up","0"
"323044598376317","3","-1.9197364","-0.823086","9.744894","sit up","0"
"323044618293140","3","-1.9508777","-0.79673576","9.792804","sit up","0"
"323044638234910","3","-1.9844143","-0.79434025","9.77364","sit up","0"
"323044658151733","3","-1.9317138","-0.7703855","9.809572","sit up","0"
"323044678035535","3","-1.8454766","-0.7560127","9.732917","sit up","0"
"323044697952358","3","-1.8119398","-0.7104986","9.550859","sit up","0"
"323044717864546","3","-1.7927761","-0.73924434","9.519719","sit up","0"
"323044737781369","3","-1.7520529","-0.74163973","9.675425","sit up","0"
"323044757721317","3","-1.7760078","-0.7152896","9.749685","sit up","0"
"323044777638140","3","-1.8239173","-0.7248714","9.62991","sit up","0"
"323044797527723","3","-1.802358","-0.73924434","9.593979","sit up","0"
"323044817444025","3","-1.7688214","-0.7104986","9.663447","sit up","0"
"323044837356056","3","-1.7664258","-0.6410296","9.579606","sit up","0"
"323044857272358","3","-1.802358","-0.66977537","9.558047","sit up","0"
"323044877187254","3","-1.8167309","-0.74163973","9.670634","sit up","0"
"323044897103556","3","-1.7616348","-0.7799674","9.785617","sit up","0"
"323044917047306","3","-1.692166","-0.7248714","9.69938","sit up","0"
"323044936963608","3","-1.7352846","-0.6386341","9.582001","sit up","0"
"323044956870640","3","-1.7760078","-0.6458206","9.608352","sit up","0"
"323044976786942","3","-1.6586292","-0.70331216","9.579606","sit up","0"
"323044996703244","3","-1.572392","-0.79673576","9.493369","sit up","0"
"323045016619546","3","-1.5340643","-0.8063177","9.579606","sit up","0"
"323045036535744","3","-1.577183","-0.7560127","9.761662","sit up","0"
"323045056452046","3","-1.692166","-0.70091665","9.711357","sit up","0"
"323045076367983","3","-1.7233071","-0.6913347","9.514928","sit up","0"
"323045096284285","3","-1.6179061","-0.7224759","9.567629","sit up","0"
"323045116201056","3","-1.5029233","-0.7128941","9.768848","sit up","0"
"323045136117358","3","-1.4861548","-0.66258895","9.704171","sit up","0"
"323045156032254","3","-1.4598045","-0.66737986","9.538883","sit up","0"
"323045175948608","3","-1.4358497","-0.73924434","9.653866","sit up","0"
"323045195868400","3","-1.5340643","-0.7584082","9.692194","sit up","0"
"323045215784702","3","-1.5005276","-0.6865438","9.723335","sit up","0"
"323045235697723","3","-1.4166859","-0.6506115","9.754476","sit up","0"
"323045255614025","3","-1.4550136","-0.6889392","9.613143","sit up","0"
"323045275531994","3","-1.4502226","-0.70810306","9.570024","sit up","0"
"323045295448296","3","-1.3831493","-0.6769619","9.617934","sit up","0"
"323045315359702","3","-1.3136804","-0.61947036","9.62512","sit up","0"
"323045335276004","3","-1.306494","-0.6314477","9.658657","sit up","0"
"323045355193400","3","-1.4262679","-0.7224759","9.742498","sit up","0"
"323045375109702","3","-1.5963469","-0.717685","9.69938","sit up","0"
"323045394997410","3","-1.7257028","-0.5571879","9.493369","sit up","0"
"323045414913713","3","-1.5699966","-0.5571879","9.524509","sit up","0"
"323045434862098","3","-1.3112848","-0.6362387","9.744894","sit up","0"
"323045454778400","3","-1.306494","-0.6050974","9.713753","sit up","0"
"323045474663140","3","-1.3855448","-0.5835382","9.634702","sit up","0"
"323045494579494","3","-1.3687763","-0.61467934","9.670634","sit up","0"
"323045514494806","3","-1.3448216","-0.6290523","9.689797","sit up","0"
"323045534411108","3","-1.3759627","-0.597911","9.644284","sit up","0"
"323045554348608","3","-1.337635","-0.61707485","9.627516","sit up","0"
"323045574264910","3","-1.2993075","-0.6386341","9.692194","sit up","0"
"323045594158660","3","-1.3903357","-0.62186587","9.668239","sit up","0"
"323045614074963","3","-1.5244825","-0.62426126","9.730521","sit up","0"
"323045634021681","3","-1.5053186","-0.62186587","9.864668","sit up","0"
"323045653938035","3","-1.4454317","-0.5619788","9.778431","sit up","0"
"323045673844650","3","-1.3903357","-0.53802407","9.639493","sit up","0"
"323045693760952","3","-1.3639854","-0.5500015","9.69938","sit up","0"
"323045713652931","3","-1.4142904","-0.5835382","9.742498","sit up","0"
"323045733569285","3","-1.402313","-0.597911","9.730521","sit up","0"
"323045753488140","3","-1.3615899","-0.5835382","9.663447","sit up","0"
"323045773404494","3","-1.3424261","-0.5955156","9.62512","sit up","0"
"323045793350535","3","-1.3208668","-0.6074929","9.601165","sit up","0"
"323045813266785","3","-1.2897255","-0.6338432","9.60356","sit up","0"
"323045833153504","3","-1.2729573","-0.6769619","9.680216","sit up","0"
"323045853069702","3","-1.3256577","-0.6889392","9.668239","sit up","0"
"323045872986317","3","-1.4142904","-0.6362387","9.617934","sit up","0"
"323045892902515","3","-1.4310589","-0.61707485","9.661052","sit up","0"
"323045912845796","3","-1.411895","-0.5955156","9.69938","sit up","0"
"323045932761994","3","-1.4382453","-0.597911","9.689797","sit up","0"
"323045952683400","3","-1.407104","-0.6410296","9.742498","sit up","0"
"323045972599598","3","-1.4526181","-0.6434251","9.713753","sit up","0"
"323045992478192","3","-1.5101097","-0.65779805","9.637098","sit up","0"
"323046012394390","3","-1.4262679","-0.66737986","9.749685","sit up","0"
"323046032341733","3","-1.3855448","-0.6338432","9.802386","sit up","0"
"323046052257931","3","-1.3855448","-0.65779805","9.704171","sit up","0"
"323046072138765","3","-1.3975221","-0.66977537","9.663447","sit up","0"
"323046092054963","3","-1.3831493","-0.6482161","9.641888","sit up","0"
"323046111993452","3","-1.3136804","-0.6338432","9.668239","sit up","0"
"323046131909650","3","-1.3280532","-0.62426126","9.637098","sit up","0"
"323046151816369","3","-1.3975221","-0.6266568","9.546069","sit up","0"
"323046171732567","3","-1.3999176","-0.6386341","9.749685","sit up","0"
"323046191622358","3","-1.4358497","-0.6458206","9.819154","sit up","0"
"323046211538556","3","-1.4837593","-0.6721709","9.742498","sit up","0"
"323046231450327","3","-1.5149006","-0.6482161","9.687403","sit up","0"
"323046251366525","3","-1.4885503","-0.6386341","9.677821","sit up","0"
"323046271310588","3","-1.3927312","-0.6410296","9.675425","sit up","0"
"323046291226785","3","-1.3184713","-0.6266568","9.668239","sit up","0"
"323046311112150","3","-1.371172","-0.6410296","9.6562605","sit up","0"
"323046331028348","3","-1.3903357","-0.6482161","9.65147","sit up","0"
"323046350943660","3","-1.3591944","-0.6338432","9.668239","sit up","0"
"323046370859858","3","-1.3663809","-0.6266568","9.6562605","sit up","0"
"323046390800588","3","-1.3496125","-0.62426126","9.670634","sit up","0"
"323046410716785","3","-1.3280532","-0.6050974","9.620329","sit up","0"
"323046430600275","3","-1.3184713","-0.6434251","9.665843","sit up","0"
"323046450527202","3","-1.352008","-0.6338432","9.696984","sit up","0"
"323046470462723","3","-1.407104","-0.6314477","9.608352","sit up","0"
"323046490378973","3","-1.4047086","-0.6482161","9.687403","sit up","0"
"323046510284858","3","-1.3999176","-0.6434251","9.75208","sit up","0"
"323046530201056","3","-1.3951266","-0.6362387","9.704171","sit up","0"
"323046550102306","3","-1.411895","-0.62426126","9.701775","sit up","0"
"323046570018504","3","-1.4142904","-0.6266568","9.694589","sit up","0"
"323046589954754","3","-1.4310589","-0.6338432","9.701775","sit up","0"
"323046609870952","3","-1.4262679","-0.6434251","9.704171","sit up","0"
"323046629789390","3","-1.4190814","-0.6362387","9.706566","sit up","0"
"323046649705588","3","-1.3975221","-0.62186587","9.685007","sit up","0"
"323046669621317","3","-1.3783584","-0.6314477","9.668239","sit up","0"
"323046689537515","3","-1.3687763","-0.6314477","9.692194","sit up","0"
"323046709428973","3","-1.3783584","-0.6338432","9.682611","sit up","0"
"323046729345171","3","-1.3735673","-0.6410296","9.682611","sit up","0"
"323046749257254","3","-1.3615899","-0.6290523","9.689797","sit up","0"
"323046769173452","3","-1.3639854","-0.6410296","9.668239","sit up","0"
"323046789086160","3","-1.3975221","-0.62426126","9.641888","sit up","0"
"323046809002358","3","-1.4190814","-0.61947036","9.62991","sit up","0"
"323046828917515","3","-1.4190814","-0.62186587","9.661052","sit up","0"
"323046848833713","3","-1.4214768","-0.6338432","9.704171","sit up","0"
"323046868774181","3","-1.411895","-0.62186587","9.682611","sit up","0"
"323046888690379","3","-1.4142904","-0.6266568","9.687403","sit up","0"
"323046908586994","3","-1.402313","-0.62186587","9.716147","sit up","0"
"323046928503192","3","-1.402313","-0.6266568","9.687403","sit up","0"
"323046948405640","3","-1.4142904","-0.61467934","9.665843","sit up","0"
"323046968321838","3","-1.3975221","-0.6362387","9.696984","sit up","0"
"323046988233504","3","-1.3951266","-0.6506115","9.658657","sit up","0"
"323047008149754","3","-1.3759627","-0.6362387","9.67303","sit up","0"
"323047028066994","3","-1.402313","-0.62186587","9.682611","sit up","0"
"323047047983192","3","-1.3975221","-0.6362387","9.677821","sit up","0"
"323047067904963","3","-1.4094994","-0.6266568","9.696984","sit up","0"
"323047087821160","3","-1.4166859","-0.6266568","9.692194","sit up","0"
"323047107733869","3","-1.4190814","-0.6338432","9.687403","sit up","0"
"323047127650067","3","-1.411895","-0.6314477","9.668239","sit up","0"
"323047147579702","3","-1.4190814","-0.6362387","9.689797","sit up","0"
"323047167495900","3","-1.4214768","-0.6386341","9.694589","sit up","0"
"323047187378452","3","-1.4190814","-0.6434251","9.696984","stand up","0"
"323047207294702","3","-1.4166859","-0.6410296","9.668239","stand up","0"
"323047227201681","3","-1.4047086","-0.62426126","9.665843","stand up","0"
"323047247117879","3","-1.4094994","-0.6362387","9.692194","stand up","0"
"323047267061421","3","-1.3927312","-0.6482161","9.689797","stand up","0"
"323047286977619","3","-1.3951266","-0.6482161","9.658657","stand up","0"
"323047306885640","3","-1.3951266","-0.62426126","9.665843","stand up","0"
"323047326801838","3","-1.3975221","-0.6386341","9.665843","stand up","0"
"323047346689181","3","-1.4166859","-0.62426126","9.658657","stand up","0"
"323047366605379","3","-1.3927312","-0.6386341","9.720939","stand up","0"
"323047386547046","3","-1.407104","-0.6482161","9.685007","stand up","0"
"323047406463244","3","-1.4142904","-0.6410296","9.661052","stand up","0"
"323047426346525","3","-1.4094994","-0.6290523","9.696984","stand up","0"
"323047446262723","3","-1.402313","-0.6458206","9.668239","stand up","0"
"323047466175483","3","-1.3831493","-0.6434251","9.641888","stand up","0"
"323047486091681","3","-1.3807538","-0.62426126","9.644284","stand up","0"
"323047506024285","3","-1.4094994","-0.6314477","9.59877","stand up","0"
"323047525940223","3","-1.471782","-0.62426126","9.570024","stand up","0"
"323047545834285","3","-1.4885503","-0.6506115","9.680216","stand up","0"
"323047565750223","3","-1.457409","-0.65540254","9.804781","stand up","0"
"323047585668348","3","-1.4550136","-0.6266568","9.687403","stand up","0"
"323047605584285","3","-1.4382453","-0.6266568","9.694589","stand up","0"
"323047625525327","3","-1.4238724","-0.61947036","9.720939","stand up","0"
"323047645441265","3","-1.4478271","-0.6362387","9.737708","stand up","0"
"323047665329390","3","-1.4789684","-0.6266568","9.711357","stand up","0"
"323047685245275","3","-1.4813639","-0.62426126","9.67303","stand up","0"
"323047705187202","3","-1.4622","-0.62426126","9.680216","stand up","0"
"323047725103140","3","-1.4047086","-0.61707485","9.689797","stand up","0"
"323047744995744","3","-1.3807538","-0.6050974","9.634702","stand up","0"
"323047764911681","3","-1.3639854","-0.61707485","9.649075","stand up","0"
"323047784822879","3","-1.3927312","-0.6290523","9.728126","stand up","0"
"323047804738817","3","-1.411895","-0.6386341","9.720939","stand up","0"
"323047824649806","3","-1.4358497","-0.6314477","9.74729","stand up","0"
"323047844565692","3","-1.4214768","-0.6290523","9.675425","stand up","0"
"323047864508973","3","-1.4454317","-0.6050974","9.649075","stand up","0"
"323047884424910","3","-1.4645956","-0.6122838","9.797595","stand up","0"
"323047904337723","3","-1.4957367","-0.61947036","9.876645","stand up","0"
"323047924253660","3","-1.4598045","-0.6050974","9.75208","stand up","0"
"323047944136421","3","-1.4286633","-0.61707485","9.740103","stand up","0"
"323047964052358","3","-1.5244825","-0.6314477","9.737708","stand up","0"
"323047983996369","3","-1.4861548","-0.6482161","9.706566","stand up","0"
"323048003912306","3","-1.4166859","-0.66498446","9.7089615","stand up","0"
"323048023829390","3","-1.402313","-0.61707485","9.665843","stand up","0"
"323048043745327","3","-1.337635","-0.61467934","9.663447","stand up","0"
"323048063623504","3","-1.1771381","-0.6266568","9.687403","stand up","0"
"323048083539442","3","-1.0885054","-0.65300703","9.682611","stand up","0"
"323048103483035","3","-1.1531833","-0.6889392","9.57721","stand up","0"
"323048123398973","3","-1.1939064","-0.66977537","9.634702","stand up","0"
"323048143304077","3","-1.1148556","-0.6913347","9.7089615","stand up","0"
"323048163219963","3","-1.0956918","-0.6865438","9.768848","stand up","0"
"323048183105223","3","-0.93040377","-0.66498446","9.704171","stand up","0"
"323048203021108","3","-0.44172618","-0.6889392","9.608352","stand up","0"
"323048222958817","3","-0.5638956","-0.6410296","9.924555","stand up","0"
"323048242874702","3","-1.2681663","-0.6003065","10.159312","stand up","0"
"323048262787931","3","-1.6969569","-0.60988843","9.816758","stand up","0"
"323048282703869","3","-1.9484822","-0.66019344","9.301731","stand up","0"
"323048302612306","3","-2.077838","-0.8206905","9.34964","stand up","0"
"323048322528244","3","-1.7855896","-0.7320578","9.701775","stand up","0"
"323048342440119","3","-1.126833","-0.6122838","9.69938","stand up","0"
"323048362356056","3","-0.77469766","-0.7703855","9.6562605","stand up","0"
"323048382269858","3","-0.8896806","-0.7799674","9.816758","stand up","0"
"323048402185796","3","-0.84177107","-0.7608036","9.649075","stand up","0"
"323048422096629","3","-0.5519182","-0.8542273","9.411922","stand up","0"
"323048442012567","3","-0.38902566","-0.7152896","9.500555","stand up","0"
"323048461925171","3","-0.45130807","-0.6050974","9.75208","stand up","0"
"323048481841108","3","-0.50400865","-0.6865438","9.929346","stand up","0"
"323048501754442","3","-0.48724028","-0.6386341","9.938928","stand up","0"
"323048521670379","3","-0.5638956","-0.66019344","9.759267","stand up","0"
"323048541566473","3","-0.67887855","-0.6745664","9.687403","stand up","0"
"323048561482410","3","-0.78188413","-0.6841483","9.682611","stand up","0"
"323048581410275","3","-0.8321892","-0.6841483","9.694589","stand up","0"
"323048601326213","3","-0.80583894","-0.6793574","9.713753","stand up","0"
"323048621240483","3","-0.7579293","-0.6793574","9.732917","stand up","0"
"323048641156421","3","-0.71001977","-0.66977537","9.740103","stand up","0"
"323048661068296","3","-0.73637","-0.66019344","9.732917","stand up","0"
"323048680984233","3","-0.7196017","-0.65779805","9.694589","stand up","0"
"323048700895640","3","-0.67648304","-0.66977537","9.65147","stand up","0"
"323048720811577","3","-0.70283335","-0.6937301","9.704171","stand up","0"
"323048740723088","3","-0.741161","-0.66258895","9.766453","stand up","0"
"323048760639025","3","-0.79865247","-0.65779805","9.783222","stand up","0"
"323048780524650","3","-0.7555339","-0.66258895","9.718544","stand up","0"
"323048800440535","3","-0.73157907","-0.6745664","9.685007","stand up","0"
"323048820348973","3","-0.73637","-0.66977537","9.72573","stand up","0"
"323048840264858","3","-0.74595195","-0.6745664","9.761662","stand up","0"
"323048860178608","3","-0.77469766","-0.66737986","9.732917","stand up","0"
"323048880094494","3","-0.73637","-0.6913347","9.7089615","stand up","0"
"323048900006056","3","-0.7148107","-0.6721709","9.72573","stand up","0"
"323048919921942","3","-0.74595195","-0.66498446","9.737708","stand up","0"
"323048939851785","3","-0.73157907","-0.6769619","9.720939","stand up","0"
"323048959767723","3","-0.7483474","-0.6913347","9.69938","stand up","0"
"323048979661265","3","-0.72199714","-0.6721709","9.754476","stand up","0"
"323048999577150","3","-0.73637","-0.66737986","9.744894","stand up","0"
"323049019489285","3","-0.7291836","-0.6889392","9.713753","stand up","0"
"323049039405171","3","-0.741161","-0.66019344","9.716147","stand up","0"
"323049059350588","3","-0.73157907","-0.66498446","9.740103","stand up","0"
"323049079266525","3","-0.73637","-0.6817528","9.720939","stand up","0"
"323049099148140","3","-0.741161","-0.65300703","9.723335","stand up","0"
"323049119064025","3","-0.72199714","-0.66737986","9.740103","stand up","0"
"323049138976838","3","-0.741161","-0.66258895","9.716147","stand up","0"
"323049158892775","3","-0.73876554","-0.6506115","9.723335","stand up","0"
"323049178821265","3","-0.7339746","-0.66737986","9.749685","stand up","0"
"323049198736733","3","-0.7339746","-0.66258895","9.740103","stand up","0"
"323049218629025","3","-0.74355644","-0.66258895","9.728126","stand up","0"
"323049238544494","3","-0.741161","-0.66977537","9.728126","stand up","0"
"323049258489546","3","-0.7507429","-0.66737986","9.730521","stand up","0"
"323049278405067","3","-0.73876554","-0.6769619","9.720939","stand up","0"
"323049298310744","3","-0.7291836","-0.6721709","9.713753","stand up","0"
"323049318226213","3","-0.73876554","-0.6721709","9.744894","stand up","0"
"323049338106681","3","-0.7483474","-0.6793574","9.723335","stand up","0"
"323049358022150","3","-0.7196017","-0.66258895","9.713753","stand up","0"
"323049377959546","3","-0.73876554","-0.66498446","9.716147","stand up","0"
"323049397875015","3","-0.7172062","-0.6745664","9.716147","stand up","0"
"323049417788608","3","-0.72199714","-0.66737986","9.711357","stand up","0"
"323049437704077","3","-0.7291836","-0.66737986","9.718544","stand up","0"
"323049457580431","3","-0.7339746","-0.66019344","9.728126","stand up","0"
"323049477495900","3","-0.7291836","-0.65540254","9.7353115","stand up","0"
"323049497409025","3","-0.72439265","-0.65779805","9.740103","stand up","0"
"323049517324494","3","-0.7339746","-0.66737986","9.74729","stand up","0"
"323049537268973","3","-0.74355644","-0.6721709","9.742498","stand up","0"
"323049557184390","3","-0.7339746","-0.66977537","9.728126","stand up","0"
"323049577087931","3","-0.7148107","-0.6793574","9.723335","stand up","0"
"323049596986525","3","-0.72199714","-0.6769619","9.7353115","stand up","0"
"323049616901994","3","-0.7267881","-0.66737986","9.728126","stand up","0"
"323049636846681","3","-0.73637","-0.66019344","9.718544","stand up","0"
"323049656762150","3","-0.73876554","-0.66737986","9.742498","stand up","0"
"323049676643973","3","-0.741161","-0.6721709","9.74729","stand up","0"
"323049696559442","3","-0.7291836","-0.6841483","9.72573","stand up","0"
"323049716470588","3","-0.7291836","-0.6745664","9.720939","stand up","0"
"323049736386056","3","-0.73157907","-0.6745664","9.740103","stand up","0"
"323049756316838","3","-0.73876554","-0.6793574","9.754476","stand up","0"
"323049776232358","3","-0.74355644","-0.6769619","9.740103","stand up","0"
"323049796153244","3","-0.72439265","-0.6769619","9.723335","stand up","0"
"323049816068660","3","-0.72199714","-0.66498446","9.711357","stand up","0"
"323049835952358","3","-0.73157907","-0.66977537","9.723335","stand up","0"
"323049855867827","3","-0.7267881","-0.6721709","9.728126","stand up","0"
"323049875787098","3","-0.7267881","-0.66498446","9.728126","stand up","0"
"323049895702619","3","-0.7291836","-0.66019344","9.720939","stand up","0"
"323049915636108","3","-0.73157907","-0.66498446","9.737708","stand up","0"
"323049935551577","3","-0.72439265","-0.6769619","9.72573","stand up","0"
"323049955464858","3","-0.73876554","-0.6769619","9.720939","stand up","0"
"323049975380327","3","-0.72439265","-0.66977537","9.7353115","stand up","0"
"323049995287983","3","-0.7172062","-0.66498446","9.723335","stand up","0"
"323050015203452","3","-0.7196017","-0.6745664","9.737708","stand up","0"
"323050035116160","3","-0.73637","-0.65540254","9.704171","stand up","0"
"323050055031629","3","-0.7196017","-0.66737986","9.723335","stand up","0"
"323050074935692","3","-0.73157907","-0.66977537","9.723335","stand up","0"
"323050094851160","3","-0.7291836","-0.66737986","9.740103","stand up","0"
"323050114776838","3","-0.7196017","-0.66737986","9.728126","stand up","0"
"323050134692306","3","-0.72439265","-0.6769619","9.732917","stand up","0"
"323050154606265","3","-0.72199714","-0.6721709","9.732917","stand up","0"
"323050174521733","3","-0.73876554","-0.66258895","9.732917","stand up","0"
"323050194418035","3","-0.741161","-0.66498446","9.728126","stand up","0"
"323050214333504","3","-0.73157907","-0.6745664","9.740103","stand up","0"
"323050234256890","3","-0.7172062","-0.66977537","9.728126","stand up","0"
"323050254172358","3","-0.7339746","-0.66498446","9.723335","stand up","0"
"323050274083973","3","-0.7339746","-0.66498446","9.72573","stand up","0"
"323050293999442","3","-0.7291836","-0.66737986","9.718544","stand up","0"
"323050313910379","3","-0.7267881","-0.66258895","9.728126","stand up","0"
"323050333825848","3","-0.7267881","-0.6721709","9.7353115","stand up","0"
"323050353736317","3","-0.73637","-0.66737986","9.744894","stand up","0"
"323050373651785","3","-0.73157907","-0.66737986","9.744894","stand up","0"
"323050393570327","3","-0.7148107","-0.66498446","9.718544","stand up","0"
"323050413485796","3","-0.73637","-0.66258895","9.732917","stand up","0"
"323050433395900","3","-0.73157907","-0.65779805","9.75208","stand up","0"
"323050453311369","3","-0.73876554","-0.66498446","9.742498","stand up","0"
"323050473194285","3","-0.7291836","-0.66977537","9.728126","stand up","0"
"323050493109754","3","-0.72199714","-0.66019344","9.72573","stand up","0"
"323050513023921","3","-0.7148107","-0.66737986","9.737708","stand up","0"
"323050532939390","3","-0.7291836","-0.66019344","9.7353115","stand up","0"
"323050552873400","3","-0.7291836","-0.6793574","9.744894","stand up","0"
"323050572788869","3","-0.7267881","-0.66258895","9.718544","stand up","0"
"323050592710171","3","-0.7291836","-0.6745664","9.742498","stand up","0"
"323050612625379","3","-0.7148107","-0.6817528","9.740103","stand up","0"
"323050632509285","3","-0.7148107","-0.6793574","9.74729","stand up","0"
"323050652424494","3","-0.72439265","-0.6793574","9.732917","stand up","0"
"323050672372358","3","-0.72439265","-0.66498446","9.740103","stand up","0"
"323050692287567","3","-0.72199714","-0.6745664","9.730521","stand up","0"
"323050712187567","3","-0.7267881","-0.6769619","9.732917","stand up","0"
"323050732102775","3","-0.7196017","-0.6865438","9.728126","stand up","0"
"323050752020015","3","-0.72199714","-0.6817528","9.7353115","stand up","0"
"323050771935223","3","-0.73157907","-0.6721709","9.74729","stand up","0"
"323050791834494","3","-0.72439265","-0.66977537","9.75208","stand up","0"
"323050811749702","3","-0.73157907","-0.6769619","9.74729","stand up","0"
"323050831687202","3","-0.72439265","-0.66977537","9.7089615","stand up","0"
"323050851602410","3","-0.73157907","-0.66498446","9.744894","stand up","0"
"323050871519077","3","-0.7148107","-0.66977537","9.732917","stand up","0"
"323050891434338","3","-0.72439265","-0.6793574","9.728126","stand up","0"
"323050911344077","3","-0.72199714","-0.6793574","9.737708","stand up","0"
"323050931259285","3","-0.7196017","-0.6817528","9.723335","stand up","0"
"323050951166733","3","-0.7291836","-0.6793574","9.72573","stand up","0"
"323050971081942","3","-0.72439265","-0.6745664","9.718544","stand up","0"
"323050990996369","3","-0.7148107","-0.66977537","9.737708","stand up","0"
"323051010911577","3","-0.7124152","-0.6793574","9.730521","stand up","0"
"323051030857567","3","-0.73876554","-0.66498446","9.718544","stand up","0"
"323051050772775","3","-0.72199714","-0.6889392","9.730521","stand up","0"
"323051070658088","3","-0.7291836","-0.6817528","9.740103","stand up","0"
"323051090573296","3","-0.7267881","-0.66258895","9.723335","stand up","0"
"323051110517671","3","-0.72439265","-0.6793574","9.732917","stand up","0"
"323051130432879","3","-0.7267881","-0.6721709","9.730521","stand up","0"
"323051150341994","3","-0.7196017","-0.6745664","9.728126","stand up","0"
"323051170257202","3","-0.72199714","-0.66258895","9.742498","stand up","0"
"323051289766994","3","-0.70283335","-0.66498446","9.665843","stand up","1"
"323051309682254","3","-0.72199714","-0.66019344","9.764058","none","1"
"323051329570796","3","-0.7124152","-0.66498446","9.737708","none","1"
"323051349486004","3","-0.7052288","-0.6721709","9.720939","none","1"
"323051369416838","3","-0.72199714","-0.66498446","9.737708","none","1"
"323051389332046","3","-0.7196017","-0.6745664","9.720939","none","1"
"323051409266525","3","-0.7196017","-0.66977537","9.706566","none","1"
"323051429181733","3","-0.70283335","-0.66258895","9.718544","none","1"
"323051449070119","3","-0.7076243","-0.66737986","9.716147","none","1"
"323051468985327","3","-0.7196017","-0.6817528","9.742498","none","1"
"323051488904442","3","-0.7291836","-0.6721709","9.740103","none","1"
"323051508819702","3","-0.7196017","-0.6769619","9.737708","none","1"
"323051528761838","3","-0.72439265","-0.66737986","9.723335","none","1"
"323051548677046","3","-0.72439265","-0.66737986","9.711357","none","1"
"323051568591421","3","-0.72439265","-0.66977537","9.744894","none","1"
"323051588506629","3","-0.7124152","-0.66498446","9.740103","none","1"
"323051608444858","3","-0.7124152","-0.66258895","9.706566","none","1"
"323051628360067","3","-0.7076243","-0.66737986","9.728126","none","1"
"323051648277879","3","-0.73637","-0.66977537","9.730521","none","1"
"323051668193140","3","-0.7148107","-0.66977537","9.744894","none","1"
"323051688114494","3","-0.72439265","-0.66737986","9.742498","none","1"
"323051708029754","3","-0.7291836","-0.66977537","9.754476","none","1"
"323051727951838","3","-0.72439265","-0.66498446","9.74729","none","1"
"323051747867098","3","-0.7172062","-0.6745664","9.728126","none","1"
"323051767789650","3","-0.72199714","-0.6841483","9.730521","none","1"
"323051787704910","3","-0.7196017","-0.66977537","9.742498","none","1"
"323051807627879","3","-0.72199714","-0.66498446","9.75208","none","1"
"323051827543140","3","-0.7076243","-0.66977537","9.720939","none","1"
"323051847458192","3","-0.7196017","-0.6769619","9.742498","none","1"
"323051867373452","3","-0.7196017","-0.66498446","9.7353115","none","1"
"323051887292254","3","-0.73876554","-0.66737986","9.74729","none","1"
"323051907207515","3","-0.70283335","-0.6769619","9.728126","none","1"
"323051927124233","3","-0.7124152","-0.6817528","9.718544","none","1"
"323051947039494","3","-0.7267881","-0.6793574","9.74729","none","1"
"323051966935119","3","-0.7052288","-0.66498446","9.7353115","none","1"
"323051986850327","3","-0.7267881","-0.6769619","9.72573","none","1"
"323052006797983","3","-0.72439265","-0.6745664","9.720939","none","1"
"323052026713244","3","-0.7267881","-0.66258895","9.732917","none","1"
"323052046629598","3","-0.7172062","-0.66498446","9.732917","none","1"
"323052066544858","3","-0.72439265","-0.66019344","9.740103","none","1"
"323052086433869","3","-0.73637","-0.66258895","9.744894","none","1"
"323052106349077","3","-0.7267881","-0.6721709","9.764058","none","1"
"323052126282723","3","-0.72199714","-0.6817528","9.730521","none","1"
"323052146197931","3","-0.72199714","-0.66977537","9.728126","none","1"
"323052166112358","3","-0.7172062","-0.66258895","9.728126","none","1"
"323052186027567","3","-0.7196017","-0.6745664","9.742498","none","1"
"323052205931994","3","-0.71001977","-0.6817528","9.742498","none","1"
"323052225847567","3","-0.72199714","-0.6769619","9.720939","none","1"
"323052245801004","3","-0.7052288","-0.65300703","9.723335","none","1"
"323052265716577","3","-0.7196017","-0.6745664","9.74729","none","1"
"323052285609338","3","-0.72199714","-0.6769619","9.74729","none","1"
"323052305524910","3","-0.7291836","-0.6745664","9.720939","none","1"
"323052325443869","3","-0.7172062","-0.66019344","9.723335","none","1"
"323052345359442","3","-0.7172062","-0.6769619","9.728126","none","1"
"323052365277410","3","-0.71001977","-0.6865438","9.742498","none","1"
"323052385193035","3","-0.6836695","-0.6721709","9.723335","none","1"
"323052405112410","3","-0.7196017","-0.6745664","9.764058","none","1"
"323052425027983","3","-0.72439265","-0.6793574","9.742498","none","1"
"323052444947775","3","-0.72439265","-0.6841483","9.713753","none","1"
"323052464863348","3","-0.7076243","-0.66737986","9.728126","none","1"
"323052484802567","3","-0.70283335","-0.6745664","9.718544","none","1"
"323052504718140","3","-0.70283335","-0.66977537","9.720939","none","1"
"323052524613660","3","-0.7148107","-0.65779805","9.7353115","none","1"
"323052544529233","3","-0.73637","-0.6793574","9.740103","none","1"
"323052564463140","3","-0.7172062","-0.6793574","9.7353115","none","1"
"323052584378713","3","-0.70043784","-0.6745664","9.720939","none","1"
"323052604277306","3","-0.7172062","-0.66737986","9.728126","none","1"
"323052624192931","3","-0.72439265","-0.66498446","9.7353115","none","1"
"323052644112150","3","-0.7148107","-0.66498446","9.7353115","none","1"
"323052664027775","3","-0.7124152","-0.66498446","9.737708","none","1"
"323052683944129","3","-0.72199714","-0.66737986","9.7353115","none","1"
"323052703859754","3","-0.72199714","-0.66977537","9.728126","none","1"
"323052723800900","3","-0.7148107","-0.66977537","9.7353115","none","1"
"323052743716473","3","-0.71001977","-0.66258895","9.740103","none","1"
"323052763625067","3","-0.70283335","-0.66498446","9.72573","none","1"
"323052783540640","3","-0.7124152","-0.66258895","9.728126","none","1"
"323052803447619","3","-0.7124152","-0.66019344","9.728126","none","1"
"323052823363244","3","-0.7076243","-0.66498446","9.720939","none","1"
"323052843314442","3","-0.71001977","-0.66977537","9.742498","none","1"
"323052863230015","3","-0.7172062","-0.6745664","9.732917","none","1"
"323052883115588","3","-0.7148107","-0.6841483","9.749685","none","1"
"323052903031160","3","-0.7196017","-0.6721709","9.730521","none","1"
"323052922986265","3","-0.72439265","-0.66737986","9.740103","none","1"
"323052942901838","3","-0.7148107","-0.6745664","9.728126","none","1"
"323052962801265","3","-0.7172062","-0.66258895","9.728126","none","1"
"323052982716890","3","-0.7124152","-0.66498446","9.732917","none","1"
"323053002622775","3","-0.7076243","-0.66258895","9.742498","none","1"
"323053022538348","3","-0.7076243","-0.66258895","9.74729","none","1"
"323053042452150","3","-0.7124152","-0.6769619","9.7353115","none","1"
"323053062367775","3","-0.72199714","-0.66019344","9.737708","none","1"
"323053082314910","3","-0.7291836","-0.66737986","9.730521","none","1"
"323053102230483","3","-0.7124152","-0.66737986","9.72573","none","1"
"323053122131160","3","-0.6956469","-0.6769619","9.728126","none","1"
"323053142046733","3","-0.7076243","-0.66977537","9.7089615","none","1"
"323053161976785","3","-0.7148107","-0.6769619","9.72573","none","1"
"323053181892410","3","-0.7124152","-0.66498446","9.737708","none","1"
"323053201795015","3","-0.70043784","-0.65779805","9.723335","none","1"
"323053221710640","3","-0.7076243","-0.66498446","9.742498","none","1"
"323053241634390","3","-0.7052288","-0.6721709","9.732917","none","1"
"323053261550327","3","-0.7196017","-0.6793574","9.7353115","none","1"
"323053281454285","3","-0.7052288","-0.6745664","9.7353115","none","1"
"323053301370223","3","-0.72439265","-0.6458206","9.730521","none","1"
"323053321291733","3","-0.7076243","-0.66977537","9.716147","none","1"
"323053341207671","3","-0.7076243","-0.6745664","9.718544","none","1"
"323053361130223","3","-0.7124152","-0.6793574","9.742498","none","1"
"323053381046213","3","-0.7052288","-0.66977537","9.716147","none","1"
"323053400979233","3","-0.70283335","-0.66977537","9.716147","none","1"
"323053420895171","3","-0.70043784","-0.6817528","9.732917","none","1"
"323053440816317","3","-0.6980424","-0.6913347","9.728126","none","1"
"323053460732254","3","-0.72199714","-0.6793574","9.732917","none","1"
"323053480636369","3","-0.7196017","-0.6745664","9.744894","none","1"
"323053500552306","3","-0.7052288","-0.6841483","9.716147","none","1"
"323053520461004","3","-0.7172062","-0.6769619","9.742498","none","1"
"323053540376942","3","-0.7076243","-0.65540254","9.7353115","none","1"
"323053560300067","3","-0.70283335","-0.66019344","9.749685","none","1"
"323053580216056","3","-0.7267881","-0.66737986","9.728126","none","1"
"323053600129754","3","-0.7172062","-0.6817528","9.7353115","none","1"
"323053620045692","3","-0.7172062","-0.6769619","9.7353115","none","1"
"323053639958192","3","-0.72199714","-0.66977537","9.740103","none","1"
"323053659874129","3","-0.7148107","-0.6745664","9.730521","none","1"
"323053679800275","3","-0.7052288","-0.6721709","9.742498","none","1"
"323053699716213","3","-0.7124152","-0.66019344","9.713753","none","1"
"323053719644650","3","-0.7196017","-0.6769619","9.728126","none","1"
"323053739560588","3","-0.7076243","-0.6721709","9.716147","none","1"
"323053759478192","3","-0.7148107","-0.66019344","9.723335","none","1"
"323053779394129","3","-0.71001977","-0.6841483","9.742498","none","1"
"323053799291317","3","-0.72199714","-0.6841483","9.7353115","none","1"
"323053819207306","3","-0.7172062","-0.66498446","9.732917","none","1"
"323053839130379","3","-0.7076243","-0.6745664","9.744894","none","1"
"323053859046317","3","-0.7172062","-0.6745664","9.7353115","none","1"
"323053878957463","3","-0.72439265","-0.6817528","9.730521","none","1"
"323053898873452","3","-0.7076243","-0.6793574","9.75208","none","1"
"323053918769338","3","-0.71001977","-0.6793574","9.740103","none","1"
"323053938685327","3","-0.7196017","-0.6793574","9.732917","none","1"
"323053958616421","3","-0.7076243","-0.6721709","9.756871","none","1"
"323053978532358","3","-0.72439265","-0.66019344","9.728126","none","1"
"323053998446056","3","-0.7196017","-0.6817528","9.737708","none","1"
"323054018362046","3","-0.71001977","-0.6721709","9.72573","none","1"
"323054038292358","3","-0.71001977","-0.65300703","9.7089615","none","1"
"323054058208348","3","-0.7076243","-0.66258895","9.716147","none","1"
"323054078110483","3","-0.70043784","-0.6889392","9.713753","none","1"
"323054098026421","3","-0.7076243","-0.6769619","9.730521","none","1"
"323054117936681","3","-0.7172062","-0.66498446","9.754476","none","1"
"323054137852671","3","-0.72199714","-0.6865438","9.75208","none","1"
"323054157754129","3","-0.71001977","-0.6817528","9.728126","none","1"
"323054177670119","3","-0.7076243","-0.6793574","9.730521","none","1"
"323054197599546","3","-0.70283335","-0.66977537","9.728126","none","1"
"323054217515483","3","-0.72199714","-0.66258895","9.728126","none","1"
"323054237432202","3","-0.7148107","-0.65300703","9.72573","none","1"
"323054257348192","3","-0.7052288","-0.6745664","9.732917","none","1"
"323054277262202","3","-0.71001977","-0.66498446","9.737708","none","1"
"323054297178192","3","-0.72439265","-0.6745664","9.728126","none","1"
"323054317098921","3","-0.6980424","-0.66977537","9.723335","none","1"
"323054337014858","3","-0.70283335","-0.6793574","9.730521","none","1"
"323054356914806","3","-0.7124152","-0.6793574","9.749685","none","1"
"323054376830744","3","-0.72439265","-0.66498446","9.732917","none","1"
"323054396759181","3","-0.7172062","-0.66977537","9.74729","none","1"
"323054416675119","3","-0.72439265","-0.6721709","9.744894","none","1"
"323054436601369","3","-0.70283335","-0.6769619","9.7353115","none","1"
"323054456517306","3","-0.72199714","-0.6721709","9.74729","none","1"
"323054476431108","3","-0.7172062","-0.66258895","9.72573","none","1"
"323054496347046","3","-0.7196017","-0.66737986","9.723335","none","1"
"323054516280483","3","-0.7148107","-0.6793574","9.737708","none","1"
"323054536196473","3","-0.7124152","-0.66498446","9.742498","none","1"
"323054556087619","3","-0.7052288","-0.6745664","9.744894","none","1"
"323054576003556","3","-0.72199714","-0.65779805","9.728126","none","1"
"323054595930900","3","-0.6980424","-0.66258895","9.732917","none","1"
"323054615846785","3","-0.7148107","-0.6841483","9.713753","none","1"
"323054635758400","3","-0.70283335","-0.6745664","9.7089615","none","1"
"323054655674338","3","-0.7076243","-0.6769619","9.7353115","none","1"
"323054675578296","3","-0.72439265","-0.6817528","9.754476","none","1"
"323054695494181","3","-0.7267881","-0.66498446","9.716147","none","1"
"323054715422567","3","-0.70283335","-0.6817528","9.72573","none","1"
"323054735338556","3","-0.7124152","-0.6745664","9.728126","none","1"
"323054755241421","3","-0.7148107","-0.66258895","9.7353115","none","1"
"323054775157358","3","-0.71001977","-0.6745664","9.732917","none","1"
"323054795090223","3","-0.70043784","-0.6745664","9.723335","none","1"
"323054815006213","3","-0.7052288","-0.6769619","9.732917","none","1"
"323054834915431","3","-0.7124152","-0.66977537","9.723335","none","1"
"323054854831369","3","-0.7052288","-0.65540254","9.72573","none","1"
"323054874736056","3","-0.71001977","-0.66498446","9.728126","none","1"
"323054894652046","3","-0.71001977","-0.6817528","9.7353115","none","1"
"323054914560535","3","-0.71001977","-0.6769619","9.72573","none","1"
"323054934476473","3","-0.72199714","-0.6745664","9.7353115","none","1"
"323054954395848","3","-0.7124152","-0.65779805","9.732917","none","1"
"323054974311785","3","-0.7124152","-0.66737986","9.730521","none","1"
"323054994249442","3","-0.71001977","-0.6769619","9.713753","none","1"
"323055014165431","3","-0.7291836","-0.66737986","9.732917","none","1"
"323055034053504","3","-0.7076243","-0.66737986","9.72573","none","1"
"323055053969442","3","-0.7172062","-0.6745664","9.732917","none","1"
"323055073886108","3","-0.7172062","-0.6817528","9.74729","none","1"
"323055093802046","3","-0.73637","-0.66737986","9.737708","none","1"
"323055113714390","3","-0.6956469","-0.66498446","9.756871","none","1"
"323055133630379","3","-0.7148107","-0.6745664","9.732917","none","1"
"323055153546785","3","-0.7076243","-0.6721709","9.718544","none","1"
"323055173462723","3","-0.7148107","-0.66498446","9.749685","sit down","1"
"323055193401838","3","-0.71001977","-0.6769619","9.732917","sit down","1"
"323055213317775","3","-0.70283335","-0.65540254","9.718544","sit down","1"
"323055233235223","3","-0.7076243","-0.66977537","9.749685","sit down","1"
"323055253151160","3","-0.68606496","-0.6769619","9.72573","sit down","1"
"323055273062827","3","-0.71001977","-0.66737986","9.723335","sit down","1"
"323055292978765","3","-0.72439265","-0.6506115","9.737708","sit down","1"
"323055312891838","3","-0.7196017","-0.6745664","9.744894","sit down","1"
"323055332807775","3","-0.7124152","-0.66737986","9.711357","sit down","1"
"323055352692046","3","-0.7291836","-0.6721709","9.730521","sit down","1"
"323055372607983","3","-0.72199714","-0.6721709","9.718544","sit down","1"
"323055392556108","3","-0.69325143","-0.6745664","9.72573","sit down","1"
"323055412472046","3","-0.70043784","-0.66737986","9.730521","sit down","1"
"323055432387202","3","-0.7076243","-0.66977537","9.718544","sit down","1"
"323055452303192","3","-0.7148107","-0.6793574","9.713753","sit down","1"
"323055472209233","3","-0.70283335","-0.66498446","9.72573","sit down","1"
"323055492125223","3","-0.72199714","-0.66258895","9.720939","sit down","1"
"323055512009390","3","-0.6980424","-0.66977537","9.7353115","sit down","1"
"323055531925379","3","-0.7172062","-0.6721709","9.713753","sit down","1"
"323055551837619","3","-0.7172062","-0.6721709","9.720939","sit down","1"
"323055571753504","3","-0.70283335","-0.66498446","9.74729","sit down","1"
"323055591698088","3","-0.71001977","-0.66258895","9.742498","sit down","1"
"323055611614077","3","-0.7172062","-0.65540254","9.744894","sit down","1"
"323055631493973","3","-0.7052288","-0.6793574","9.72573","sit down","1"
"323055651409910","3","-0.7052288","-0.6769619","9.723335","sit down","1"
"323055671322046","3","-0.7124152","-0.6769619","9.728126","sit down","1"
"323055691238035","3","-0.7172062","-0.6745664","9.7089615","sit down","1"
"323055711178452","3","-0.7172062","-0.6769619","9.723335","sit down","1"
"323055731094442","3","-0.7124152","-0.6769619","9.749685","sit down","1"
"323055751012723","3","-0.7148107","-0.6745664","9.7353115","sit down","1"
"323055770928713","3","-0.72199714","-0.66258895","9.720939","sit down","1"
"323055790807098","3","-0.71001977","-0.6745664","9.74729","sit down","1"
"323055810723088","3","-0.7148107","-0.66019344","9.756871","sit down","1"
"323055830671733","3","-0.71001977","-0.66977537","9.732917","sit down","1"
"323055850587723","3","-0.7339746","-0.66258895","9.732917","sit down","1"
"323055870500379","3","-0.7172062","-0.66737986","9.728126","sit down","1"
"323055890416369","3","-0.6956469","-0.6721709","9.730521","sit down","1"
"323055910293556","3","-0.6956469","-0.66498446","9.732917","sit down","1"
"323055930209494","3","-0.71001977","-0.6745664","9.723335","sit down","1"
"323055950141421","3","-0.7124152","-0.66258895","9.7353115","sit down","1"
"323055970057410","3","-0.71001977","-0.66498446","9.7353115","sit down","1"
"323055989949598","3","-0.7076243","-0.66977537","9.728126","sit down","1"
"323056009865588","3","-0.71001977","-0.6817528","9.7353115","sit down","1"
"323056029777098","3","-0.7076243","-0.6793574","9.771244","sit down","1"
"323056049693035","3","-0.7124152","-0.6769619","9.761662","sit down","1"
"323056069636056","3","-0.7076243","-0.6817528","9.701775","sit down","1"
"323056089552046","3","-0.6908559","-0.65779805","9.716147","sit down","1"
"323056109431785","3","-0.7267881","-0.65779805","9.72573","sit down","1"
"323056129347723","3","-0.7052288","-0.66737986","9.737708","sit down","1"
"323056149295744","3","-0.6908559","-0.6817528","9.732917","sit down","1"
"323056169211733","3","-0.7124152","-0.6793574","9.728126","sit down","1"
"323056189108556","3","-0.7196017","-0.65779805","9.716147","sit down","1"
"323056209024546","3","-0.68606496","-0.66019344","9.711357","sit down","1"
"323056228921265","3","-0.7172062","-0.66977537","9.701775","sit down","1"
"323056248837254","3","-0.7579293","-0.6817528","9.711357","sit down","1"
"323056268751213","3","-0.70283335","-0.6769619","9.720939","sit down","1"
"323056288667202","3","-0.7267881","-0.66019344","9.72573","sit down","1"
"323056308614338","3","-0.7483474","-0.6745664","9.728126","sit down","1"
"323056328530327","3","-0.7339746","-0.6865438","9.713753","sit down","1"
"323056348413452","3","-0.73637","-0.6769619","9.718544","sit down","1"
"323056368328973","3","-0.7267881","-0.6745664","9.7089615","sit down","1"
"323056388244650","3","-0.7148107","-0.6482161","9.69938","sit down","1"
"323056408160171","3","-0.7291836","-0.65540254","9.732917","sit down","1"
"323056428105744","3","-0.7124152","-0.6793574","9.7353115","sit down","1"
"323056448021265","3","-0.7076243","-0.6769619","9.713753","sit down","1"
"323056467905900","3","-0.78188413","-0.65300703","9.713753","sit down","1"
"323056487821421","3","-0.7651158","-0.6769619","9.701775","sit down","1"
"323056507741056","3","-0.7579293","-0.6721709","9.634702","sit down","1"
"323056527656577","3","-0.741161","-0.66258895","9.680216","sit down","1"
"323056547593973","3","-0.7148107","-0.6721709","9.75208","sit down","1"
"323056567509494","3","-0.7052288","-0.66019344","9.790408","sit down","1"
"323056587403556","3","-0.72199714","-0.66737986","9.754476","sit down","1"
"323056607319077","3","-0.72439265","-0.66019344","9.663447","sit down","1"
"323056627267098","3","-0.65731925","-0.6793574","9.65147","sit down","1"
"323056647182619","3","-0.70283335","-0.6865438","9.706566","sit down","1"
"323056667099285","3","-0.7866751","-0.6506115","9.706566","sit down","1"
"323056687014806","3","-0.7555339","-0.66498446","9.72573","sit down","1"
"323056706930119","3","-0.67169213","-0.66498446","9.680216","sit down","1"
"323056726845640","3","-0.6597147","-0.6865438","9.69938","sit down","1"
"323056746761369","3","-0.6525283","-0.69852114","9.7353115","sit down","1"
"323056766676890","3","-0.6477373","-0.6937301","9.701775","sit down","1"
"323056786589598","3","-0.6381554","-0.717685","9.696984","sit down","1"
"323056806505119","3","-0.68846047","-0.70570755","9.74729","sit down","1"
"323056826423140","3","-0.80583894","-0.66019344","9.771244","sit down","1"
"323056846338660","3","-0.93519473","-0.6434251","9.7089615","sit down","1"
"323056866254806","3","-1.0525732","-0.66737986","9.716147","sit down","1"
"323056886170327","3","-1.1004827","-0.66977537","9.816758","sit down","1"
"323056906088400","3","-1.1148556","-0.70331216","9.855085","sit down","1"
"323056926003921","3","-1.2202567","-0.69852114","9.701775","sit down","1"
"323056945917150","3","-1.2513978","-0.70570755","9.620329","sit down","1"
"323056965828452","3","-1.1915109","-0.7128941","9.778431","sit down","1"
"323056985743921","3","-1.1388104","-0.6841483","9.9005995","sit down","1"
"323057005659910","3","-1.1148556","-0.7128941","9.778431","sit down","1"
"323057025575431","3","-1.0477822","-0.74403524","9.646679","sit down","1"
"323057045504181","3","-1.031014","-0.6889392","9.531696","sit down","1"
"323057065419702","3","-1.0693415","-0.6913347","9.608352","sit down","1"
"323057085334025","3","-1.1388104","-0.6817528","9.776035","sit down","1"
"323057105249546","3","-1.071737","-0.6793574","9.74729","sit down","1"
"323057125158921","3","-0.99029076","-0.6961256","9.730521","sit down","1"
"323057145074442","3","-0.9783133","-0.6937301","9.701775","sit down","1"
"323057164992983","3","-1.0214319","-0.6961256","9.720939","sit down","1"
"323057184908556","3","-1.0382004","-0.70091665","9.749685","sit down","1"
"323057204813713","3","-1.0453868","-0.6937301","9.756871","sit down","1"
"323057224729233","3","-1.0861099","-0.6889392","9.704171","sit down","1"
"323057244636838","3","-1.1148556","-0.6889392","9.653866","sit down","1"
"323057264552358","3","-1.1052737","-0.6865438","9.713753","sit down","1"
"323057284431525","3","-1.0980873","-0.6769619","9.723335","sit down","1"
"323057304347046","3","-1.0837145","-0.6865438","9.711357","sit down","1"
"323057324286265","3","-1.1004827","-0.70810306","9.658657","sit down","1"
"323057344201785","3","-1.1148556","-0.6961256","9.622725","sit down","1"
"323057364119233","3","-1.1124601","-0.70331216","9.711357","sit down","1"
"323057384034754","3","-1.1148556","-0.66498446","9.744894","sit down","1"
"323057403939598","3","-1.1412059","-0.6434251","9.7089615","sit down","1"
"323057423855119","3","-1.1579742","-0.66977537","9.69938","sit down","1"
"323057443767827","3","-1.1771381","-0.66977537","9.680216","sit down","1"
"323057463683348","3","-1.1963019","-0.66498446","9.658657","sit down","1"
"323057483598088","3","-1.1723471","-0.6769619","9.680216","sit down","1"
"323057503513608","3","-1.1699517","-0.6793574","9.768848","sit down","1"
"323057523421838","3","-1.1459968","-0.66737986","9.766453","sit down","1"
"323057543337358","3","-1.1891155","-0.6817528","9.771244","sit down","1"
"323057563252723","3","-1.2010928","-0.70091665","9.723335","sit down","1"
"323057583168244","3","-1.2346295","-0.6817528","9.653866","sit down","1"
"323057603046942","3","-1.2394205","-0.66977537","9.687403","sit down","1"
"323057622962463","3","-1.2082794","-0.66737986","9.740103","sit down","1"
"323057642902410","3","-1.1747426","-0.6913347","9.67303","sit down","1"
"323057662817931","3","-1.1579742","-0.6889392","9.65147","sit down","1"
"323057682728556","3","-1.1675562","-0.6745664","9.682611","sit down","1"
"323057702644077","3","-1.1771381","-0.6865438","9.701775","sit down","1"
"323057722550327","3","-1.1819291","-0.6721709","9.711357","sit down","1"
"323057742465848","3","-1.1843245","-0.6769619","9.696984","sit down","1"
"323057762362931","3","-1.1891155","-0.6745664","9.723335","sit down","1"
"323057782278452","3","-1.1651607","-0.6913347","9.768848","sit down","1"
"323057802172463","3","-1.1795335","-0.6937301","9.7089615","sit down","1"
"323057822087983","3","-1.1986973","-0.6817528","9.658657","sit down","1"
"323057842027463","3","-1.2346295","-0.6793574","9.694589","sit down","1"
"323057861929285","3","-1.2010928","-0.6721709","9.728126","sit down","1"
"323057881855848","3","-1.18672","-0.6769619","9.692194","sit down","1"
"323057901771369","3","-1.1651607","-0.66498446","9.677821","sit down","1"
"323057921649702","3","-1.1819291","-0.6841483","9.682611","sit down","1"
"323057941565223","3","-1.1963019","-0.6793574","9.706566","sit down","1"
"323057961493244","3","-1.1723471","-0.6865438","9.687403","sit down","1"
"323057981408765","3","-1.1843245","-0.6793574","9.663447","sit down","1"
"323058001302723","3","-1.1986973","-0.6793574","9.665843","sit down","1"
"323058021218244","3","-1.2250476","-0.6769619","9.7089615","sit down","1"
"323058041124650","3","-1.2106748","-0.6721709","9.696984","sit down","1"
"323058061040171","3","-1.1771381","-0.6841483","9.720939","sit down","1"
"323058080980067","3","-1.1795335","-0.6721709","9.711357","sit down","1"
"323058100895588","3","-1.1986973","-0.66977537","9.687403","sit down","1"
"323058120806213","3","-1.2130703","-0.6889392","9.749685","sit down","1"
"323058140721733","3","-1.2130703","-0.66977537","9.720939","sit down","1"
"323058160613973","3","-1.2154658","-0.6817528","9.677821","sit down","1"
"323058180529494","3","-1.2034883","-0.6817528","9.685007","sit down","1"
"323058200448088","3","-1.1915109","-0.6721709","9.704171","sit down","1"
"323058220363608","3","-1.1819291","-0.6841483","9.704171","sit down","1"
"323058240256577","3","-1.18672","-0.6913347","9.718544","sit down","1"
"323058260172098","3","-1.2106748","-0.6721709","9.694589","sit down","1"
"323058280082202","3","-1.237025","-0.66977537","9.665843","sit down","1"
"323058299997723","3","-1.2154658","-0.6721709","9.694589","sit down","1"
"323058319929858","3","-1.1843245","-0.6745664","9.730521","sit down","1"
"323058339845431","3","-1.2034883","-0.6769619","9.689797","sit down","1"
"323058359758400","3","-1.2130703","-0.6769619","9.680216","sit down","1"
"323058379673921","3","-1.2106748","-0.66977537","9.67303","sit down","1"
"323058399571265","3","-1.2154658","-0.66977537","9.694589","sit down","1"
"323058419486785","3","-1.2058839","-0.66258895","9.728126","sit down","1"
"323058439430275","3","-1.2178612","-0.6745664","9.716147","sit down","1"
"323058459345796","3","-1.2202567","-0.6793574","9.689797","sit down","1"
"323058479231004","3","-1.1915109","-0.6865438","9.7089615","sit down","1"
"323058499146525","3","-1.2034883","-0.69852114","9.718544","sit down","1"
"323058519059598","3","-1.1986973","-0.6721709","9.692194","sit down","1"
"323058538975119","3","-1.1986973","-0.66737986","9.716147","sit down","1"
"323058558908608","3","-1.1963019","-0.6721709","9.7089615","sit down","1"
"323058578824129","3","-1.2178612","-0.6769619","9.701775","sit down","1"
"323058598713608","3","-1.2034883","-0.6841483","9.692194","sit down","1"
"323058618629129","3","-1.1747426","-0.6769619","9.685007","sit down","1"
"323058638566942","3","-1.1986973","-0.6865438","9.713753","sit down","1"
"323058658482463","3","-1.2130703","-0.6889392","9.742498","sit down","1"
"323058678402202","3","-1.2010928","-0.6745664","9.677821","sit down","1"
"323058698317723","3","-1.2082794","-0.6817528","9.677821","sit down","1"
"323058718198035","3","-1.2106748","-0.6769619","9.72573","sit down","1"
"323058738113556","3","-1.2130703","-0.6769619","9.682611","sit down","1"
"323058758043504","3","-1.2106748","-0.6721709","9.689797","sit down","1"
"323058777959025","3","-1.2010928","-0.6793574","9.711357","sit down","1"
"323058797866317","3","-1.1939064","-0.66737986","9.687403","sit down","1"
"323058817781838","3","-1.18672","-0.6889392","9.689797","sit down","1"
"323058837683348","3","-1.2034883","-0.6745664","9.704171","sit down","1"
"323058857598869","3","-1.1986973","-0.6889392","9.677821","sit down","1"
"323058877528817","3","-1.1891155","-0.6721709","9.682611","sit down","1"
"323058897444338","3","-1.2058839","-0.6721709","9.718544","sit down","1"
"323058917364858","3","-1.1939064","-0.6745664","9.730521","sit down","1"
"323058937280015","3","-1.2058839","-0.6769619","9.682611","sit down","1"
"323058957187619","3","-1.2058839","-0.66977537","9.687403","sit down","1"
"323058977102827","3","-1.1986973","-0.6745664","9.694589","sit down","1"
"323058997013869","3","-1.2010928","-0.6889392","9.689797","sit down","1"
"323059016929025","3","-1.2058839","-0.6817528","9.701775","sit down","1"
"323059036847410","3","-1.2034883","-0.6841483","9.713753","sit down","1"
"323059056762567","3","-1.1986973","-0.6913347","9.689797","sit down","1"
"323059076688400","3","-1.2202567","-0.6769619","9.685007","sit down","1"
"323059096603608","3","-1.1963019","-0.6793574","9.689797","sit down","1"
"323059116510483","3","-1.18672","-0.66737986","9.701775","sit down","1"
"323059136425640","3","-1.2082794","-0.6721709","9.685007","sit down","1"
"323059156365744","3","-1.2106748","-0.6721709","9.685007","lay down","1"
"323059176280900","3","-1.2058839","-0.66737986","9.720939","lay down","1"
"323059196193817","3","-1.2178612","-0.6745664","9.732917","lay down","1"
"323059216108973","3","-1.2010928","-0.6817528","9.713753","lay down","1"
"323059236021213","3","-1.1963019","-0.66737986","9.716147","lay down","1"
"323059255936421","3","-1.2034883","-0.6793574","9.711357","lay down","1"
"323059275850067","3","-1.1963019","-0.69852114","9.701775","lay down","1"
"323059295765223","3","-1.1963019","-0.6961256","9.687403","lay down","1"
"323059315680952","3","-1.2130703","-0.6817528","9.701775","lay down","1"
"323059335596108","3","-1.2034883","-0.6913347","9.687403","lay down","1"
"323059355514129","3","-1.1939064","-0.6913347","9.680216","lay down","1"
"323059375429285","3","-1.2082794","-0.6913347","9.694589","lay down","1"
"323059395343608","3","-1.1986973","-0.6865438","9.69938","lay down","1"
"323059415258765","3","-1.18672","-0.6817528","9.69938","lay down","1"
"323059435145640","3","-1.2034883","-0.66977537","9.668239","lay down","1"
"323059455060744","3","-1.2010928","-0.6817528","9.704171","lay down","1"
"323059474978973","3","-1.2106748","-0.6841483","9.694589","lay down","1"
"323059494894077","3","-1.1915109","-0.69852114","9.694589","lay down","1"
"323059514840275","3","-1.2130703","-0.6721709","9.694589","lay down","1"
"323059534755379","3","-1.2202567","-0.6865438","9.728126","lay down","1"
"323059554644129","3","-1.2082794","-0.7128941","9.792804","lay down","1"
"323059574559233","3","-1.2034883","-0.70331216","9.768848","lay down","1"
"323059594476317","3","-1.2058839","-0.70331216","9.713753","lay down","1"
"323059614391421","3","-1.2106748","-0.65300703","9.692194","lay down","1"
"323059634332723","3","-1.2154658","-0.6338432","9.67303","lay down","1"
"323059654247827","3","-1.2250476","-0.6482161","9.692194","lay down","1"
"323059674180744","3","-1.2106748","-0.6458206","9.718544","lay down","1"
"323059694095900","3","-1.1627653","-0.6338432","9.720939","lay down","1"
"323059713977202","3","-1.1651607","-0.66737986","9.658657","lay down","1"
"323059733892358","3","-1.1795335","-0.6817528","9.639493","lay down","1"
"323059753833504","3","-1.1891155","-0.66498446","9.620329","lay down","1"
"323059773748660","3","-1.1603698","-0.6889392","9.62512","lay down","1"
"323059793641890","3","-1.126833","-0.69852114","9.644284","lay down","1"
"323059813556994","3","-1.1436014","-0.7200804","9.620329","lay down","1"
"323059833475223","3","-1.1939064","-0.7104986","9.754476","lay down","1"
"323059853390327","3","-1.2298386","-0.66977537","9.761662","lay down","1"
"323059873333660","3","-1.1795335","-0.65300703","9.766453","lay down","1"
"323059893248765","3","-1.1244376","-0.6338432","9.77364","lay down","1"
"323059913138348","3","-1.0813189","-0.6362387","9.658657","lay down","1"
"323059933053452","3","-1.0645506","-0.65779805","9.696984","lay down","1"
"323059952975223","3","-1.2130703","-0.6003065","9.680216","lay down","1"
"323059972890431","3","-1.3088894","-0.6745664","9.694589","lay down","1"
"323059992837306","3","-1.3591944","-0.73924434","9.871854","lay down","1"
"323060012752515","3","-1.337635","-0.6889392","9.69938","lay down","1"
"323060032641525","3","-1.2585844","-0.6266568","9.471808","lay down","1"
"323060052556733","3","-1.1124601","-0.60988843","9.608352","lay down","1"
"323060072476421","3","-1.1004827","-0.6314477","9.766453","lay down","1"
"323060092391629","3","-1.1603698","-0.6841483","9.665843","lay down","1"
"323060112341942","3","-1.1651607","-0.7104986","9.62512","lay down","1"
"323060132257150","3","-1.1747426","-0.70331216","9.728126","lay down","1"
"323060152161213","3","-1.1555787","-0.6817528","9.756871","lay down","1"
"323060172076421","3","-1.1795335","-0.6290523","9.661052","lay down","1"
"323060191979233","3","-1.2729573","-0.6338432","9.589188","lay down","1"
"323060211894442","3","-1.301703","-0.6817528","9.644284","lay down","1"
"323060231815223","3","-1.2490025","-0.74163973","9.72573","lay down","1"
"323060251730431","3","-1.1986973","-0.70810306","9.768848","lay down","1"
"323060271673660","3","-1.2202567","-0.6913347","9.740103","lay down","1"
"323060291588869","3","-1.2490025","-0.6769619","9.737708","lay down","1"
"323060311482879","3","-1.301703","-0.70570755","9.713753","lay down","1"
"323060331398088","3","-1.3591944","-0.75122166","9.766453","lay down","1"
"323060351318244","3","-1.3352396","-0.7248714","9.859877","lay down","1"
"323060371233452","3","-1.3879402","-0.7775719","9.761662","lay down","1"
"323060391180900","3","-1.3879402","-0.7584082","9.898205","lay down","1"
"323060411096160","3","-1.1963019","-0.6290523","9.982046","lay down","1"
"323060430987046","3","-1.2130703","-0.57635164","9.675425","lay down","1"
"323060450902254","3","-1.2945166","-0.6506115","9.45025","lay down","1"
"323060470821473","3","-1.3544035","-0.7200804","9.459832","lay down","1"
"323060490736681","3","-1.3232622","-0.69852114","9.644284","lay down","1"
"323060510689129","3","-1.2729573","-0.6769619","9.838318","lay down","1"
"323060530604338","3","-1.1651607","-0.6266568","9.67303","lay down","1"
"323060550493192","3","-1.0238274","-0.57635164","9.562838","lay down","1"
"323060570408400","3","-0.98070884","-0.4302275","9.665843","lay down","1"
"323060590353608","3","-1.1172512","-0.49730095","9.7089615","lay down","1"
"323060610268765","3","-1.1483923","-0.56676984","9.546069","lay down","1"
"323060630190015","3","-1.0932963","-0.69852114","9.548465","lay down","1"
"323060650105171","3","-1.1555787","-0.66498446","9.57242","lay down","1"
"323060670022202","3","-1.1627653","-0.5883291","9.627516","lay down","1"
"323060689937410","3","-1.0597596","-0.56676984","9.57721","lay down","1"
"323060709826890","3","-1.026223","-0.6458206","9.555651","lay down","1"
"323060729742098","3","-1.1172512","-0.7584082","9.62512","lay down","1"
"323060749691056","3","-1.1627653","-0.7128941","9.663447","lay down","1"
"323060769606265","3","-1.131624","-0.7631991","9.634702","lay down","1"
"323060789525900","3","-1.2394205","-0.9859785","9.627516","lay down","1"
"323060809441108","3","-1.371172","-0.9356736","9.895809","lay down","1"
"323060829356577","3","-1.5268779","-0.6889392","10.037142","lay down","1"
"323060849271785","3","-1.4526181","-0.8063177","9.881435","lay down","1"
"323060869192775","3","-1.3352396","-0.9404645","9.97486","lay down","1"
"323060889107983","3","-1.356799","-0.83027244","9.962883","lay down","1"
"323060908994650","3","-1.4166859","-0.75361717","9.677821","lay down","1"
"323060928909858","3","-1.3831493","-0.7703855","9.4909725","lay down","1"
"323060948859390","3","-1.2801437","-0.6769619","9.4766","lay down","1"
"323060968774598","3","-1.2226522","-0.6122838","9.546069","lay down","1"
"323060988692723","3","-1.3136804","-0.74882615","9.534092","lay down","1"
"323061008607983","3","-1.1603698","-0.82548153","9.4909725","lay down","1"
"323061028527410","3","-0.72199714","-0.7272669","9.4766","lay down","1"
"323061048442619","3","-0.73876554","-0.37752703","9.512533","lay down","1"
"323061068330431","3","-1.5316689","-0.48292807","9.838318","lay down","1"
"323061088245640","3","-1.857454","-0.8542273","10.051515","lay down","1"
"323061108189598","3","-1.4909458","-0.8590182","10.015583","lay down","1"
"323061128104858","3","-1.1172512","-0.70570755","9.898205","lay down","1"
"323061147997150","3","-1.0070591","-0.6314477","9.641888","lay down","1"
"323061167912358","3","-1.2154658","-0.66258895","9.498159","lay down","1"
"323061187828765","3","-1.4334543","-0.66977537","9.685007","lay down","1"
"323061207744285","3","-1.4190814","-0.62426126","9.910182","lay down","1"
"323061227696681","3","-1.2705617","-0.61707485","9.737708","lay down","1"
"323061247612202","3","-1.1843245","-0.7128941","9.414318","lay down","1"
"323061267503973","3","-1.2346295","-0.7104986","9.392759","lay down","1"
"323061287419494","3","-1.3136804","-0.6074929","9.620329","lay down","1"
"323061307370119","3","-1.3591944","-0.57874715","9.689797","lay down","1"
"323061327285640","3","-1.4094994","-0.62186587","9.591583","lay down","1"
"323061347195796","3","-1.3831493","-0.6793574","9.582001","lay down","1"
"323061367111317","3","-1.4094994","-0.6889392","9.665843","lay down","1"
"323061387008817","3","-1.4598045","-0.6410296","9.72573","lay down","1"
"323061406924338","3","-1.4861548","-0.5907246","9.766453","lay down","1"
"323061426871942","3","-1.4957367","-0.6386341","9.680216","lay down","1"
"323061446787463","3","-1.5460417","-0.6889392","9.59877","lay down","1"
"323061466697879","3","-1.4909458","-0.66258895","9.59877","lay down","1"
"323061486613400","3","-1.3208668","-0.6290523","9.685007","lay down","1"
"323061506524650","3","-1.237025","-0.66977537","9.756871","lay down","1"
"323061526440119","3","-1.3687763","-0.66498446","9.737708","lay down","1"
"323061546362567","3","-1.512505","-0.58114266","9.728126","lay down","1"
"323061566278035","3","-1.6083243","-0.5643743","9.689797","lay down","1"
"323061586203088","3","-1.5987422","-0.5619788","9.754476","lay down","1"
"323061606118608","3","-1.4645956","-0.5595834","9.692194","lay down","1"
"323061626006994","3","-1.5699966","-0.5092783","9.555651","lay down","1"
"323061645922463","3","-1.7568438","-0.49730095","9.764058","lay down","1"
"323061665841577","3","-1.8478721","-0.66258895","9.720939","lay down","1"
"323061685757098","3","-1.802358","-0.7248714","9.553256","lay down","1"
"323061705704181","3","-1.6131152","-0.7296624","9.627516","lay down","1"
"323061725619702","3","-1.4478271","-0.7272669","9.665843","lay down","1"
"323061745507671","3","-1.4214768","-0.6769619","9.550859","lay down","1"
"323061765423192","3","-1.4813639","-0.70091665","9.57242","lay down","1"
"323061785338035","3","-1.457409","-0.74403524","9.692194","lay down","1"
"323061805253556","3","-1.4693866","-0.7224759","9.644284","lay down","1"
"323061825205119","3","-1.512505","-0.6889392","9.553256","lay down","1"
"323061845120640","3","-1.5292735","-0.6769619","9.617934","lay down","1"
"323061865006785","3","-1.6059287","-0.66498446","9.792804","lay down","1"
"323061884922306","3","-1.6897705","-0.66977537","9.754476","lay down","1"
"323061904871108","3","-1.7784032","-0.6793574","9.720939","lay down","1"
"323061924786629","3","-1.8358946","-0.6721709","9.756871","lay down","1"
"323061944691577","3","-1.8311037","-0.66498446","9.819154","lay down","1"
"323061964607098","3","-1.7376801","-0.6434251","9.766453","lay down","1"
"323061984511629","3","-1.6107197","-0.6745664","9.637098","lay down","1"
"323062004427150","3","-1.5484372","-0.69852114","9.579606","lay down","1"
"323062024349025","3","-1.5891604","-0.6937301","9.550859","lay down","1"
"323062044264546","3","-1.5987422","-0.6745664","9.550859","lay down","1"
"323062064213921","3","-1.572392","-0.6506115","9.529301","lay down","1"
"323062084129442","3","-1.577183","-0.6386341","9.500555","lay down","1"
"323062104014077","3","-1.6107197","-0.6266568","9.562838","lay down","1"
"323062123929598","3","-1.6226971","-0.6410296","9.65147","lay down","1"
"323062143849702","3","-1.6538383","-0.66019344","9.713753","lay down","1"
"323062163765223","3","-1.6658156","-0.6769619","9.675425","lay down","1"
"323062183712879","3","-1.6706066","-0.6817528","9.668239","lay down","1"
"323062203628452","3","-1.6682112","-0.6769619","9.718544","lay down","1"
"323062223519546","3","-1.6634202","-0.6865438","9.723335","lay down","1"
"323062243435379","3","-1.6538383","-0.6961256","9.701775","lay down","1"
"323062263376838","3","-1.6346745","-0.7128941","9.646679","lay down","1"
"323062283292671","3","-1.6203016","-0.6841483","9.613143","lay down","1"
"323062303212358","3","-1.6131152","-0.66019344","9.610746","lay down","1"
"323062323128192","3","-1.6203016","-0.66258895","9.605956","lay down","1"
"323062343048244","3","-1.6322789","-0.65300703","9.608352","lay down","1"
"323062362964077","3","-1.6298835","-0.6410296","9.617934","lay down","1"
"323062382881577","3","-1.6682112","-0.65540254","9.637098","lay down","1"
"323062402797410","3","-1.6801885","-0.6506115","9.653866","lay down","1"
"323062422717567","3","-1.6514428","-0.6410296","9.680216","lay down","1"
"323062442633400","3","-1.6562338","-0.66258895","9.685007","lay down","1"
"323062462521056","3","-1.6562338","-0.66737986","9.653866","lay down","1"
"323062482436890","3","-1.6610248","-0.6745664","9.663447","lay down","1"
"323062502386265","3","-1.6442564","-0.6841483","9.653866","lay down","1"
"323062522302098","3","-1.6394655","-0.6841483","9.639493","lay down","1"
"323062542225015","3","-1.63707","-0.66737986","9.646679","lay down","1"
"323062562140900","3","-1.6274881","-0.66737986","9.653866","lay down","1"
"323062582056056","3","-1.6466519","-0.66498446","9.622725","lay down","1"
"323062601971890","3","-1.6610248","-0.66498446","9.637098","lay down","1"
"323062621895119","3","-1.6466519","-0.6745664","9.69938","lay down","1"
"323062641810952","3","-1.6538383","-0.66258895","9.639493","lay down","1"
"323062661728817","3","-1.6274881","-0.6841483","9.610746","lay down","1"
"323062681644650","3","-1.6274881","-0.6721709","9.644284","lay down","1"
"323062701546629","3","-1.63707","-0.65779805","9.637098","lay down","1"
"323062721462463","3","-1.6514428","-0.66258895","9.641888","lay down","1"
"323062741394494","3","-1.6753976","-0.66019344","9.661052","lay down","1"
"323062761310327","3","-1.6442564","-0.66019344","9.6562605","lay down","1"
"323062781219338","3","-1.6562338","-0.66498446","9.637098","lay down","1"
"323062801135171","3","-1.6514428","-0.66498446","9.627516","lay down","1"
"323062821066994","3","-1.6514428","-0.66258895","9.653866","lay down","1"
"323062840982827","3","-1.6442564","-0.66019344","9.641888","lay down","1"
"323062860903348","3","-1.6538383","-0.65300703","9.649075","lay down","1"
"323062880819233","3","-1.6514428","-0.66737986","9.649075","lay down","1"
"323062900760015","3","-1.6514428","-0.66737986","9.627516","lay down","1"
"323062920675848","3","-1.6322789","-0.6865438","9.620329","lay down","1"
"323062940580223","3","-1.6490474","-0.6745664","9.641888","lay down","1"
"323062960496056","3","-1.6442564","-0.66737986","9.65147","lay down","1"
"323062980403660","3","-1.6250925","-0.66977537","9.639493","lay down","1"
"323063000316473","3","-1.6490474","-0.66498446","9.634702","lay down","1"
"323063020232358","3","-1.6730021","-0.65540254","9.649075","lay down","1"
"323063040167619","3","-1.6682112","-0.66977537","9.663447","lay down","1"
"323063060083452","3","-1.6466519","-0.65300703","9.639493","lay down","1"
"323063079998660","3","-1.6442564","-0.6506115","9.65147","lay down","1"
"323063099914494","3","-1.6538383","-0.65779805","9.622725","lay down","1"
"323063119822723","3","-1.6442564","-0.66977537","9.620329","lay down","1"
"323063139738608","3","-1.641861","-0.6721709","9.649075","lay down","1"
"323063159687619","3","-1.6442564","-0.66977537","9.62512","sit up","1"
"323063179603504","3","-1.6634202","-0.66498446","9.641888","sit up","1"
"323063199492619","3","-1.6466519","-0.6745664","9.653866","sit up","1"
"323063219408504","3","-1.6610248","-0.66737986","9.649075","sit up","1"
"323063239357827","3","-1.6706066","-0.66258895","9.637098","sit up","1"
"323063259273713","3","-1.6586292","-0.66019344","9.641888","sit up","1"
"323063279188192","3","-1.6562338","-0.66977537","9.622725","sit up","1"
"323063299104077","3","-1.6466519","-0.66977537","9.637098","sit up","1"
"323063318999494","3","-1.6538383","-0.66737986","9.641888","sit up","1"
"323063338915379","3","-1.641861","-0.66019344","9.65147","sit up","1"
"323063358857254","3","-1.6538383","-0.6434251","9.637098","sit up","1"
"323063378773088","3","-1.6658156","-0.66019344","9.641888","sit up","1"
"323063398673452","3","-1.6658156","-0.6889392","9.65147","sit up","1"
"323063418589338","3","-1.6658156","-0.66737986","9.649075","sit up","1"
"323063438509858","3","-1.6562338","-0.6721709","9.641888","sit up","1"
"323063458425744","3","-1.6442564","-0.66019344","9.62512","sit up","1"
"323063478378817","3","-1.6562338","-0.6482161","9.627516","sit up","1"
"323063498294650","3","-1.6538383","-0.6482161","9.653866","sit up","1"
"323063518181994","3","-1.6514428","-0.6386341","9.605956","sit up","1"
"323063538097827","3","-1.682584","-0.6889392","9.687403","sit up","1"
"323063558017515","3","-1.6610248","-0.6745664","9.692194","sit up","1"
"323063577933400","3","-1.6226971","-0.6482161","9.596374","sit up","1"
"323063597870171","3","-1.5244825","-0.6769619","9.538883","sit up","1"
"323063617786004","3","-1.5244825","-0.7248714","9.495764","sit up","1"
"323063637687410","3","-1.6730021","-0.6745664","9.447855","sit up","1"
"323063657603296","3","-1.7760078","-0.6793574","9.500555","sit up","1"
"323063677525535","3","-1.7304935","-0.73924434","9.661052","sit up","1"
"323063697441369","3","-1.6538383","-0.6362387","9.634702","sit up","1"
"323063717388973","3","-1.6969569","-0.6074929","9.526905","sit up","1"
"323063737304858","3","-1.7352846","-0.602702","9.514928","sit up","1"
"323063757205171","3","-1.7280982","-0.66498446","9.541278","sit up","1"
"323063777121056","3","-1.8239173","-0.6769619","9.692194","sit up","1"
"323063797042202","3","-1.91255","-0.6913347","9.838318","sit up","1"
"323063816958088","3","-1.7927761","-0.7655945","9.740103","sit up","1"
"323063836893192","3","-1.6250925","-0.74882615","9.622725","sit up","1"
"323063856808973","3","-1.6394655","-0.79434025","9.685007","sit up","1"
"323063876754233","3","-1.8119398","-0.9069278","9.653866","sit up","1"
"323063896670067","3","-1.8215218","-0.8087132","9.28017","sit up","1"
"323063916557879","3","-1.7927761","-0.5907246","9.177166","sit up","1"
"323063936473713","3","-1.9005727","-0.66258895","9.431086","sit up","1"
"323063956429129","3","-2.0323238","-0.9859785","9.593979","sit up","1"
"323063976344963","3","-2.0155556","-1.1225208","9.646679","sit up","1"
"323063996228556","3","-2.1497023","-1.0698203","9.555651","sit up","1"
