"Timestamp","Accuracy","Acceleration X","Acceleration Y","Acceleration Z","Label","Cycle"
"69088303214190","3","-0.73637","0.4560995","9.256216","stand up","0"
"69088323128826","3","-0.87770325","0.36507133","10.228781","none","0"
"69088343057420","3","-0.81302536","0.3794442","9.742498","none","0"
"69088363007159","3","-0.846562","0.3698623","9.531696","none","0"
"69088382935753","3","-0.8441666","0.3578849","9.816758","none","0"
"69088402873357","3","-0.8609349","0.3794442","9.732917","none","0"
"69088422801951","3","-0.8537485","0.38902614","9.7089615","none","0"
"69088442709451","3","-0.846562","0.37704873","9.754476","none","0"
"69088462638045","3","-0.846562","0.3602804","9.716147","none","0"
"69088482600128","3","-0.83458465","0.37465325","9.742498","none","0"
"69088502528722","3","-0.8441666","0.37465325","9.754476","none","0"
"69088522466534","3","-0.84177107","0.3578849","9.675425","none","0"
"69088542395128","3","-0.846562","0.3602804","9.718544","none","0"
"69088562318617","3","-0.8441666","0.3698623","9.783222","none","0"
"69088582247211","3","-0.8321892","0.37704873","9.730521","none","0"
"69088602178149","3","-0.8393756","0.3674668","9.689797","none","0"
"69088622106795","3","-0.846562","0.3698623","9.7353115","none","0"
"69088642041899","3","-0.8537485","0.38663065","9.761662","none","0"
"69088661970492","3","-0.8369801","0.37225777","9.740103","none","0"
"69088681898565","3","-0.8393756","0.3698623","9.723335","none","0"
"69088701827107","3","-0.8441666","0.37225777","9.740103","none","0"
"69088721742472","3","-0.8369801","0.37225777","9.7353115","none","0"
"69088741671065","3","-0.8393756","0.3674668","9.718544","none","0"
"69088761597055","3","-0.8321892","0.37465325","9.701775","none","0"
"69088781525597","3","-0.84177107","0.3818397","9.69938","none","0"
"69088801480961","3","-0.84895754","0.37225777","9.718544","none","0"
"69088821409503","3","-0.846562","0.37225777","9.716147","none","0"
"69088841335909","3","-0.846562","0.37465325","9.720939","none","0"
"69088861264503","3","-0.8441666","0.37225777","9.740103","none","0"
"69088881182315","3","-0.8393756","0.3674668","9.732917","none","0"
"69088901110909","3","-0.8297937","0.36507133","9.720939","none","0"
"69088921042940","3","-0.8441666","0.3818397","9.728126","none","0"
"69088940971586","3","-0.851353","0.3818397","9.75208","none","0"
"69088960908670","3","-0.84177107","0.37465325","9.718544","none","0"
"69088980837211","3","-0.851353","0.3794442","9.720939","none","0"
"69089000734503","3","-0.84895754","0.37704873","9.728126","none","0"
"69089020663149","3","-0.846562","0.37704873","9.737708","none","0"
"69089040627472","3","-0.846562","0.37225777","9.716147","none","0"
"69089060556065","3","-0.8441666","0.37704873","9.723335","none","0"
"69089080499503","3","-0.84895754","0.37225777","9.730521","none","0"
"69089100428045","3","-0.846562","0.37465325","9.716147","none","0"
"69089120349659","3","-0.83458465","0.37465325","9.732917","none","0"
"69089140278201","3","-0.846562","0.3674668","9.737708","none","0"
"69089160198617","3","-0.8369801","0.3674668","9.69938","none","0"
"69089180127263","3","-0.8297937","0.37465325","9.723335","none","0"
"69089200065545","3","-0.83458465","0.39860803","9.730521","none","0"
"69089219994138","3","-0.84177107","0.3794442","9.730521","none","0"
"69089239926847","3","-0.8393756","0.37465325","9.7089615","none","0"
"69089259855440","3","-0.82500273","0.35548943","9.730521","none","0"
"69089279761899","3","-0.8537485","0.36507133","9.737708","none","0"
"69089299690545","3","-0.83458465","0.38423517","9.72573","none","0"
"69089319634503","3","-0.82739824","0.3674668","9.728126","none","0"
"69089339563357","3","-0.84177107","0.3578849","9.716147","none","0"
"69089359516482","3","-0.851353","0.37704873","9.730521","none","0"
"69089379445336","3","-0.8393756","0.37465325","9.730521","none","0"
"69089399380336","3","-0.8441666","0.3698623","9.723335","none","0"
"69089419309138","3","-0.85614395","0.3674668","9.713753","none","0"
"69089439242524","3","-0.846562","0.3674668","9.718544","none","0"
"69089459171378","3","-0.8369801","0.3818397","9.740103","none","0"
"69089479070753","3","-0.8297937","0.3794442","9.742498","none","0"
"69089498999607","3","-0.8609349","0.3794442","9.72573","none","0"
"69089518934451","3","-0.84177107","0.3698623","9.711357","none","0"
"69089538863305","3","-0.8321892","0.37225777","9.718544","none","0"
"69089558793722","3","-0.8369801","0.38663065","9.720939","none","0"
"69089578722576","3","-0.8369801","0.3794442","9.730521","none","0"
"69089598654607","3","-0.8369801","0.3674668","9.732917","none","0"
"69089618583461","3","-0.84177107","0.37225777","9.72573","none","0"
"69089638504972","3","-0.84895754","0.38663065","9.730521","none","0"
"69089658433826","3","-0.82500273","0.37465325","9.730521","none","0"
"69089678368201","3","-0.8321892","0.38423517","9.711357","none","0"
"69089698297055","3","-0.8393756","0.3698623","9.713753","none","0"
"69089718213513","3","-0.84895754","0.37225777","9.730521","none","0"
"69089738142367","3","-0.851353","0.3602804","9.720939","none","0"
"69089758074347","3","-0.8393756","0.35309395","9.711357","none","0"
"69089778003201","3","-0.8441666","0.37704873","9.723335","none","0"
"69089797941899","3","-0.84177107","0.38663065","9.728126","none","0"
"69089817870753","3","-0.8178163","0.37225777","9.706566","none","0"
"69089837801586","3","-0.82739824","0.36507133","9.718544","none","0"
"69089857730388","3","-0.8441666","0.3818397","9.730521","none","0"
"69089877660961","3","-0.8441666","0.3698623","9.723335","none","0"
"69089897589763","3","-0.8369801","0.3818397","9.716147","none","0"
"69089917497784","3","-0.8393756","0.3698623","9.711357","none","0"
"69089937426586","3","-0.8321892","0.36507133","9.720939","none","0"
"69089957376951","3","-0.84177107","0.3698623","9.728126","none","0"
"69089977305805","3","-0.8321892","0.37465325","9.7353115","none","0"
"69089997229763","3","-0.8369801","0.37704873","9.732917","none","0"
"69090017158565","3","-0.84177107","0.36507133","9.728126","none","0"
"69090037105701","3","-0.8297937","0.3698623","9.732917","none","0"
"69090057034503","3","-0.84177107","0.37704873","9.728126","none","0"
"69090076950545","3","-0.8441666","0.37465325","9.72573","none","0"
"69090096879399","3","-0.8537485","0.3698623","9.718544","none","0"
"69090116770909","3","-0.8297937","0.3674668","9.723335","none","0"
"69090136699711","3","-0.8297937","0.37704873","9.7353115","none","0"
"69090156660492","3","-0.8369801","0.3794442","9.730521","none","0"
"69090176589295","3","-0.84177107","0.36267588","9.742498","none","0"
"69090196498565","3","-0.8441666","0.3698623","9.723335","none","0"
"69090216427367","3","-0.82739824","0.3674668","9.740103","none","0"
"69090236381430","3","-0.84895754","0.37465325","9.737708","none","0"
"69090256310284","3","-0.83458465","0.36507133","9.728126","none","0"
"69090276243409","3","-0.8297937","0.37225777","9.723335","none","0"
"69090296172263","3","-0.8321892","0.37225777","9.706566","none","0"
"69090316086847","3","-0.84177107","0.37465325","9.711357","none","0"
"69090336015649","3","-0.84177107","0.37225777","9.740103","none","0"
"69090355966795","3","-0.8609349","0.37704873","9.732917","none","0"
"69090375895753","3","-0.84895754","0.37465325","9.74729","none","0"
"69090395801795","3","-0.84895754","0.36267588","9.74729","none","0"
"69090415730753","3","-0.8369801","0.36267588","9.718544","none","0"
"69090435673045","3","-0.8369801","0.37465325","9.75208","none","0"
"69090455602003","3","-0.8441666","0.37225777","9.723335","none","0"
"69090475525128","3","-0.846562","0.37465325","9.713753","none","0"
"69090495454086","3","-0.84895754","0.36507133","9.737708","none","0"
"69090515376690","3","-0.846562","0.36267588","9.732917","none","0"
"69090535305649","3","-0.8441666","0.3794442","9.7353115","none","0"
"69090555247211","3","-0.82500273","0.37704873","9.728126","none","0"
"69090575176170","3","-0.8321892","0.3602804","9.720939","none","0"
"69090595105545","3","-0.846562","0.36267588","9.72573","none","0"
"69090615034451","3","-0.83458465","0.36507133","9.723335","none","0"
"69090634967680","3","-0.8369801","0.37704873","9.732917","none","0"
"69090654896638","3","-0.8441666","0.3698623","9.72573","none","0"
"69090674834347","3","-0.8393756","0.3674668","9.728126","none","0"
"69090694763305","3","-0.8393756","0.36267588","9.730521","none","0"
"69090714671534","3","-0.8297937","0.37465325","9.711357","none","0"
"69090734600492","3","-0.8321892","0.37225777","9.730521","none","0"
"69090754481951","3","-0.8441666","0.37465325","9.716147","none","0"
"69090774410909","3","-0.8441666","0.37704873","9.720939","none","0"
"69090794398670","3","-0.82500273","0.3674668","9.723335","none","0"
"69090814327680","3","-0.8297937","0.3674668","9.711357","none","0"
"69090834261117","3","-0.8393756","0.3698623","9.723335","none","0"
"69090854190076","3","-0.8369801","0.36267588","9.7353115","none","0"
"69090874109399","3","-0.8369801","0.36267588","9.728126","none","0"
"69090894038357","3","-0.8297937","0.36507133","9.728126","none","0"
"69090913989399","3","-0.8393756","0.36507133","9.72573","none","0"
"69090933918305","3","-0.84177107","0.37704873","9.720939","none","0"
"69090953818670","3","-0.8369801","0.37225777","9.72573","none","0"
"69090973747680","3","-0.8441666","0.3698623","9.720939","none","0"
"69090993697524","3","-0.8393756","0.3674668","9.706566","none","0"
"69091013626534","3","-0.8297937","0.36267588","9.7089615","none","0"
"69091033538409","3","-0.84177107","0.3698623","9.740103","none","0"
"69091053467367","3","-0.8393756","0.36507133","9.732917","none","0"
"69091073401378","3","-0.8321892","0.37225777","9.740103","none","0"
"69091093330336","3","-0.8441666","0.3698623","9.7353115","none","0"
"69091113272940","3","-0.84895754","0.3674668","9.7353115","none","0"
"69091133201899","3","-0.84895754","0.3698623","9.737708","none","0"
"69091153113670","3","-0.846562","0.37465325","9.72573","none","0"
"69091173042628","3","-0.84895754","0.3698623","9.7353115","none","0"
"69091192991690","3","-0.846562","0.36267588","9.72573","none","0"
"69091212920701","3","-0.84177107","0.3698623","9.728126","none","0"
"69091232841847","3","-0.84177107","0.37704873","9.732917","none","0"
"69091252770805","3","-0.84895754","0.37704873","9.7353115","none","0"
"69091272717211","3","-0.8369801","0.3674668","9.72573","none","0"
"69091292646170","3","-0.82739824","0.3698623","9.723335","none","0"
"69091312554763","3","-0.846562","0.37465325","9.740103","none","0"
"69091332483722","3","-0.8441666","0.37704873","9.74729","none","0"
"69091352426638","3","-0.8441666","0.3794442","9.730521","none","0"
"69091372355597","3","-0.8297937","0.37704873","9.723335","none","0"
"69091392291847","3","-0.8369801","0.3698623","9.730521","none","0"
"69091412220909","3","-0.84895754","0.37465325","9.737708","none","0"
"69091432142576","3","-0.851353","0.3698623","9.732917","none","0"
"69091452071586","3","-0.83458465","0.3698623","9.72573","none","0"
"69091472002472","3","-0.83458465","0.3698623","9.718544","none","0"
"69091491931534","3","-0.8321892","0.36267588","9.730521","none","0"
"69091511861534","3","-0.851353","0.35548943","9.740103","none","0"
"69091531790597","3","-0.846562","0.36267588","9.7353115","none","0"
"69091551712524","3","-0.83458465","0.36507133","9.720939","none","0"
"69091571641534","3","-0.82739824","0.3698623","9.72573","none","0"
"69091591546326","3","-0.83458465","0.36507133","9.740103","none","0"
"69091611475388","3","-0.8369801","0.3578849","9.7353115","none","0"
"69091631409242","3","-0.8369801","0.3698623","9.718544","none","0"
"69091651338305","3","-0.8441666","0.37704873","9.72573","none","0"
"69091671291899","3","-0.846562","0.37704873","9.723335","none","0"
"69091691220909","3","-0.8393756","0.3578849","9.728126","none","0"
"69091711149242","3","-0.82739824","0.3674668","9.7089615","none","0"
"69091731078253","3","-0.851353","0.37704873","9.730521","none","0"
"69091750969920","3","-0.84895754","0.37465325","9.74729","none","0"
"69091770898982","3","-0.8297937","0.3674668","9.720939","none","0"
"69091790862524","3","-0.8321892","0.3698623","9.740103","none","0"
"69091810791586","3","-0.82739824","0.3818397","9.72573","none","0"
"69091830706847","3","-0.8321892","0.37465325","9.730521","none","0"
"69091850635909","3","-0.83458465","0.36267588","9.728126","none","0"
"69091870552732","3","-0.84895754","0.37465325","9.716147","none","0"
"69091890481742","3","-0.85853946","0.37225777","9.72573","none","0"
"69091910428982","3","-0.846562","0.36507133","9.728126","none","0"
"69091930358045","3","-0.8321892","0.37225777","9.730521","none","0"
"69091950284138","3","-0.84177107","0.3674668","9.720939","none","0"
"69091970213201","3","-0.84177107","0.37465325","9.72573","none","0"
"69091990109138","3","-0.83458465","0.37704873","9.69938","none","0"
"69092010038201","3","-0.8393756","0.37225777","9.718544","none","0"
"69092029970232","3","-0.83458465","0.37465325","9.723335","none","0"
"69092049899295","3","-0.8393756","0.36507133","9.723335","none","0"
"69092069829242","3","-0.84177107","0.36507133","9.72573","none","0"
"69092089758201","3","-0.8297937","0.3794442","9.718544","none","0"
"69092109714503","3","-0.8369801","0.3674668","9.737708","none","0"
"69092129643565","3","-0.8321892","0.3578849","9.740103","none","0"
"69092149535492","3","-0.84177107","0.3818397","9.72573","none","0"
"69092169464555","3","-0.8441666","0.3698623","9.723335","none","0"
"69092189401065","3","-0.8393756","0.37465325","9.728126","none","0"
"69092209330128","3","-0.84177107","0.3674668","9.713753","none","0"
"69092229288565","3","-0.8321892","0.3674668","9.718544","none","0"
"69092249217628","3","-0.8393756","0.37465325","9.718544","sit down","0"
"69092269132107","3","-0.82500273","0.37225777","9.72573","sit down","0"
"69092289061117","3","-0.82500273","0.3578849","9.723335","sit down","0"
"69092308993565","3","-0.83458465","0.36507133","9.730521","sit down","0"
"69092328922628","3","-0.84177107","0.3674668","9.732917","sit down","0"
"69092348850232","3","-0.8441666","0.36267588","9.69938","sit down","0"
"69092368779295","3","-0.8393756","0.37704873","9.723335","sit down","0"
"69092388707576","3","-0.851353","0.37465325","9.7353115","sit down","0"
"69092408636638","3","-0.8657259","0.3698623","9.713753","sit down","0"
"69092428560701","3","-0.8441666","0.37225777","9.701775","sit down","0"
"69092448489555","3","-0.8393756","0.3794442","9.737708","sit down","0"
"69092468423045","3","-0.8393756","0.37704873","9.716147","sit down","0"
"69092488351899","3","-0.8226073","0.3698623","9.69938","sit down","0"
"69092508265857","3","-0.8369801","0.38663065","9.720939","sit down","0"
"69092528194711","3","-0.82500273","0.3698623","9.72573","sit down","0"
"69092548149295","3","-0.8297937","0.37225777","9.7353115","sit down","0"
"69092568078201","3","-0.81302536","0.37225777","9.704171","sit down","0"
"69092588014607","3","-0.8321892","0.38902614","9.728126","sit down","0"
"69092607943513","3","-0.8441666","0.37465325","9.72573","sit down","0"
"69092627844555","3","-0.851353","0.37465325","9.718544","sit down","0"
"69092647773461","3","-0.846562","0.37704873","9.72573","sit down","0"
"69092667706899","3","-0.8393756","0.3938171","9.72573","sit down","0"
"69092687635805","3","-0.8297937","0.3818397","9.716147","sit down","0"
"69092707559242","3","-0.846562","0.3602804","9.72573","sit down","0"
"69092727488097","3","-0.8369801","0.36507133","9.737708","sit down","0"
"69092747447315","3","-0.8297937","0.37465325","9.718544","sit down","0"
"69092767376170","3","-0.84177107","0.37225777","9.720939","sit down","0"
"69092787309347","3","-0.8369801","0.3794442","9.72573","sit down","0"
"69092807238201","3","-0.8297937","0.38663065","9.72573","sit down","0"
"69092827170753","3","-0.8297937","0.36507133","9.720939","sit down","0"
"69092847099607","3","-0.82500273","0.3602804","9.72573","sit down","0"
"69092867000597","3","-0.8297937","0.37225777","9.723335","sit down","0"
"69092886929451","3","-0.82739824","0.37465325","9.713753","sit down","0"
"69092906857784","3","-0.85853946","0.3794442","9.728126","sit down","0"
"69092926786638","3","-0.851353","0.3794442","9.742498","sit down","0"
"69092946712055","3","-0.846562","0.3698623","9.713753","sit down","0"
"69092966640961","3","-0.846562","0.3578849","9.716147","sit down","0"
"69092986578826","3","-0.82021177","0.38663065","9.704171","sit down","0"
"69093006507680","3","-0.84177107","0.37704873","9.716147","sit down","0"
"69093026430701","3","-0.84895754","0.38663065","9.732917","sit down","0"
"69093046359555","3","-0.846562","0.37465325","9.713753","sit down","0"
"69093066281170","3","-0.8369801","0.3674668","9.7089615","sit down","0"
"69093086210024","3","-0.83458465","0.36507133","9.711357","sit down","0"
"69093106143283","3","-0.84177107","0.3674668","9.713753","sit down","0"
"69093126072137","3","-0.83458465","0.39142162","9.713753","sit down","0"
"69093145999272","3","-0.8369801","0.39621255","9.72573","sit down","0"
"69093165928127","3","-0.8393756","0.3674668","9.7089615","sit down","0"
"69093185855002","3","-0.8297937","0.3602804","9.716147","sit down","0"
"69093205783908","3","-0.84177107","0.37704873","9.723335","sit down","0"
"69093225741512","3","-0.8178163","0.39860803","9.730521","sit down","0"
"69093245670418","3","-0.8537485","0.37225777","9.728126","sit down","0"
"69093265573439","3","-0.8369801","0.3602804","9.716147","sit down","0"
"69093285502345","3","-0.8393756","0.3602804","9.713753","sit down","0"
"69093305419793","3","-0.81062984","0.37704873","9.694589","sit down","0"
"69093325348647","3","-0.82500273","0.3578849","9.7353115","sit down","0"
"69093345292606","3","-0.8321892","0.40818995","9.74729","sit down","0"
"69093365221460","3","-0.8369801","0.3674668","9.730521","sit down","0"
"69093385138231","3","-0.8321892","0.348303","9.689797","sit down","0"
"69093405067085","3","-0.83458465","0.34351203","9.711357","sit down","0"
"69093425029533","3","-0.83458465","0.403399","9.766453","sit down","0"
"69093444958439","3","-0.82739824","0.39142162","9.740103","sit down","0"
"69093464854429","3","-0.8609349","0.3698623","9.701775","sit down","0"
"69093484783231","3","-0.8537485","0.35548943","9.713753","sit down","0"
"69093504731668","3","-0.8297937","0.37465325","9.72573","sit down","0"
"69093524660522","3","-0.81062984","0.37225777","9.72573","sit down","0"
"69093544554533","3","-0.8537485","0.38663065","9.723335","sit down","0"
"69093564483387","3","-0.9256128","0.39142162","9.7353115","sit down","0"
"69093584429689","3","-0.7723022","0.3243482","9.665843","sit down","0"
"69093604358543","3","-0.6836695","0.39621255","9.761662","sit down","0"
"69093624273856","3","-1.1459968","0.39142162","9.661052","sit down","0"
"69093644202658","3","-0.7124152","0.38663065","9.855085","sit down","0"
"69093664171564","3","-0.94717216","0.3794442","9.522115","sit down","0"
"69093684100418","3","-0.7267881","0.32195273","9.847899","sit down","0"
"69093704023022","3","-0.89447165","0.38902614","9.617934","sit down","0"
"69093723951877","3","-0.8537485","0.348303","9.816758","sit down","0"
"69093743890731","3","-0.89447165","0.32913917","9.689797","sit down","0"
"69093763819585","3","-0.6908559","0.3818397","9.639493","sit down","0"
"69093783741564","3","-0.7483474","0.4249583","9.749685","sit down","0"
"69093803670470","3","-0.95914954","0.38663065","9.807176","sit down","0"
"69093823554481","3","-0.9280083","0.37704873","9.62991","sit down","0"
"69093843483335","3","-0.87770325","0.36507133","9.601165","sit down","0"
"69093863460054","3","-0.8872852","0.3459075","9.749685","sit down","0"
"69093883388908","3","-0.8896806","0.34111655","9.75208","sit down","0"
"69093903301252","3","-0.9543586","0.39860803","9.701775","sit down","0"
"69093923230106","3","-0.9040535","0.3698623","9.701775","sit down","0"
"69093943144845","3","-0.8441666","0.34111655","9.682611","sit down","0"
"69093963073647","3","-0.8297937","0.35309395","9.646679","sit down","0"
"69093983015939","3","-0.79146606","0.3938171","9.732917","sit down","0"
"69094002944741","3","-0.7723022","0.39621255","9.795198","sit down","0"
"69094022863960","3","-0.73876554","0.35069847","9.749685","sit down","0"
"69094042792814","3","-0.7172062","0.31716177","9.661052","sit down","0"
"69094062723335","3","-0.7866751","0.3339301","9.649075","sit down","0"
"69094082652189","3","-0.90165806","0.27404314","9.675425","sit down","0"
"69094102612397","3","-1.0022681","0.2476929","9.701775","sit down","0"
"69094122541304","3","-0.98310435","0.19978333","9.658657","sit down","0"
"69094142458856","3","-0.9735224","0.22613358","9.632307","sit down","0"
"69094162387710","3","-0.9208219","0.3243482","9.668239","sit down","0"
"69094182335939","3","-0.851353","0.37465325","9.682611","sit down","0"
"69094202264741","3","-0.85853946","0.3938171","9.687403","sit down","0"
"69094222170939","3","-0.93519473","0.44412214","9.677821","sit down","0"
"69094242099845","3","-0.98789525","0.52077746","9.768848","sit down","0"
"69094262026825","3","-1.0334094","0.5303594","9.895809","sit down","0"
"69094281955627","3","-1.0429913","0.573478","9.919764","sit down","0"
"69094301905991","3","-0.98070884","0.53994125","9.941323","sit down","0"
"69094321834897","3","-1.0238274","0.37225777","9.898205","sit down","0"
"69094341769585","3","-1.0549687","0.25487933","9.790408","sit down","0"
"69094361698387","3","-0.9783133","0.23332003","9.632307","sit down","0"
"69094381637345","3","-0.9926863","0.2788341","9.593979","sit down","0"
"69094401566147","3","-0.9783133","0.30997533","9.668239","sit down","0"
"69094421460418","3","-0.94717216","0.30278888","9.7089615","sit down","0"
"69094441389220","3","-0.89207613","0.30997533","9.682611","sit down","0"
"69094461316720","3","-0.8681213","0.2908115","9.560442","sit down","0"
"69094481245575","3","-0.91603094","0.28362507","9.644284","sit down","0"
"69094501195002","3","-0.96873146","0.28841603","9.792804","sit down","0"
"69094521123856","3","-0.9495676","0.30518436","9.771244","sit down","0"
"69094541053491","3","-0.9280083","0.30518436","9.711357","sit down","0"
"69094560982293","3","-0.9327993","0.3243482","9.665843","sit down","0"
"69094580899481","3","-0.9711269","0.31955725","9.716147","sit down","0"
"69094600828335","3","-0.99508166","0.32195273","9.737708","sit down","0"
"69094620737085","3","-0.9998727","0.30518436","9.732917","sit down","0"
"69094640665939","3","-1.0094546","0.30997533","9.716147","sit down","0"
"69094660594325","3","-0.99508166","0.35548943","9.72573","sit down","0"
"69094680523127","3","-1.0022681","0.35069847","9.732917","sit down","0"
"69094700449950","3","-1.0358049","0.3363256","9.69938","sit down","0"
"69094720378752","3","-1.0549687","0.36507133","9.694589","sit down","0"
"69094740330575","3","-1.0238274","0.3578849","9.768848","sit down","0"
"69094760259429","3","-0.9998727","0.34351203","9.838318","sit down","0"
"69094780162450","3","-0.9783133","0.34111655","9.795198","sit down","0"
"69094800091304","3","-0.9567541","0.34111655","9.7089615","sit down","0"
"69094820022345","3","-0.9495676","0.3339301","9.670634","sit down","0"
"69094839951147","3","-0.9399857","0.30757985","9.670634","sit down","0"
"69094859885158","3","-0.95914954","0.28841603","9.689797","sit down","0"
"69094879814012","3","-0.95914954","0.293207","9.69938","sit down","0"
"69094899735002","3","-0.9639405","0.28362507","9.744894","sit down","0"
"69094919663856","3","-0.9711269","0.28362507","9.718544","sit down","0"
"69094939599533","3","-0.9783133","0.26446125","9.665843","sit down","0"
"69094959528439","3","-0.98070884","0.2788341","9.663447","sit down","0"
"69094979487762","3","-0.94717216","0.30278888","9.732917","sit down","0"
"69094999416668","3","-0.961545","0.3147663","9.696984","sit down","0"
"69095019337606","3","-0.96873146","0.32195273","9.716147","sit down","0"
"69095039266460","3","-0.9735224","0.32913917","9.742498","sit down","0"
"69095059198595","3","-0.9783133","0.3267437","9.680216","sit down","0"
"69095079127450","3","-0.98070884","0.32913917","9.69938","sit down","0"
"69095099054116","3","-0.9854998","0.3363256","9.780826","sit down","0"
"69095118982970","3","-0.9759179","0.33872107","9.759267","sit down","0"
"69095138869585","3","-0.96633595","0.3339301","9.728126","sit down","0"
"69095158798491","3","-0.9926863","0.32195273","9.723335","sit down","0"
"69095178759741","3","-0.9854998","0.3123708","9.723335","sit down","0"
"69095198688595","3","-1.0070591","0.32195273","9.730521","sit down","0"
"69095218592345","3","-0.9998727","0.31955725","9.716147","sit down","0"
"69095238520991","3","-0.9711269","0.3363256","9.723335","sit down","0"
"69095258469637","3","-0.9711269","0.32913917","9.742498","sit down","0"
"69095278398335","3","-0.9783133","0.3267437","9.706566","sit down","0"
"69095298305835","3","-0.9854998","0.32195273","9.704171","sit down","0"
"69095318234481","3","-0.96873146","0.30997533","9.716147","sit down","0"
"69095338168231","3","-0.95914954","0.3123708","9.701775","sit down","0"
"69095358096825","3","-0.9711269","0.30278888","9.711357","sit down","0"
"69095378048595","3","-0.9711269","0.3147663","9.713753","sit down","0"
"69095397977241","3","-0.9711269","0.3123708","9.711357","sit down","0"
"69095417899064","3","-0.961545","0.30997533","9.704171","sit down","0"
"69095437802345","3","-0.9639405","0.31955725","9.711357","sit down","0"
"69095457731043","3","-0.98789525","0.30757985","9.728126","sit down","0"
"69095477664012","3","-1.0070591","0.30039343","9.740103","sit down","0"
"69095497592710","3","-0.98310435","0.30278888","9.701775","sit down","0"
"69095517526147","3","-0.9759179","0.3243482","9.711357","sit down","0"
"69095537454741","3","-0.98310435","0.3243482","9.711357","sit down","0"
"69095557377658","3","-0.9759179","0.3123708","9.718544","sit down","0"
"69095577306304","3","-0.9783133","0.30997533","9.713753","sit down","0"
"69095597234845","3","-0.9854998","0.29799795","9.720939","sit down","0"
"69095617163543","3","-0.9783133","0.3147663","9.728126","sit down","0"
"69095637102866","3","-0.98789525","0.3243482","9.730521","sit down","0"
"69095657031512","3","-0.95914954","0.32913917","9.706566","sit down","0"
"69095676961043","3","-0.95914954","0.33153465","9.7089615","sit down","0"
"69095696889689","3","-0.9759179","0.3267437","9.711357","sit down","0"
"69095716832554","3","-0.98070884","0.32195273","9.723335","sit down","0"
"69095736761200","3","-0.9759179","0.30278888","9.720939","sit down","0"
"69095756688595","3","-0.9783133","0.3147663","9.716147","sit down","0"
"69095776617293","3","-0.98789525","0.30997533","9.7089615","sit down","0"
"69095796551408","3","-0.9759179","0.31955725","9.713753","sit down","0"
"69095816480054","3","-0.98310435","0.31955725","9.718544","sit down","0"
"69095836360835","3","-0.96873146","0.30518436","9.706566","sit down","0"
"69095856289533","3","-0.95914954","0.31955725","9.694589","sit down","0"
"69095876254689","3","-0.98310435","0.32195273","9.718544","sit down","0"
"69095896183387","3","-0.98789525","0.31955725","9.696984","sit down","0"
"69095916107762","3","-0.98070884","0.3123708","9.7353115","sit down","0"
"69095936036408","3","-0.95914954","0.3243482","9.718544","sit down","0"
"69095955961460","3","-0.9711269","0.3267437","9.696984","sit down","0"
"69095975890106","3","-0.9639405","0.3243482","9.716147","sit down","0"
"69095995818022","3","-0.9759179","0.30997533","9.728126","sit down","0"
"69096015746668","3","-0.98789525","0.3147663","9.720939","sit down","0"
"69096035602189","3","-0.99029076","0.3267437","9.696984","sit down","0"
"69096055530887","3","-0.9783133","0.3267437","9.718544","sit down","0"
"69096075526252","3","-0.98789525","0.3123708","9.7089615","sit down","0"
"69096095454950","3","-0.9759179","0.3123708","9.720939","sit down","0"
"69096115352710","3","-0.9759179","0.3147663","9.723335","sit down","0"
"69096135281408","3","-0.9759179","0.30997533","9.730521","sit down","0"
"69096155240783","3","-0.9759179","0.3147663","9.711357","sit down","0"
"69096175169429","3","-0.9759179","0.31955725","9.7089615","sit down","0"
"69096195095002","3","-0.9854998","0.32913917","9.718544","sit down","0"
"69096215023647","3","-0.9783133","0.32195273","9.701775","sit down","0"
"69096234948752","3","-0.96633595","0.30518436","9.713753","sit down","0"
"69096254877397","3","-0.9639405","0.3147663","9.737708","lay down","0"
"69096274801772","3","-0.9639405","0.30757985","9.723335","lay down","0"
"69096294730418","3","-0.9783133","0.3147663","9.7089615","lay down","0"
"69096314641460","3","-0.9854998","0.3123708","9.72573","lay down","0"
"69096334570158","3","-0.9759179","0.30757985","9.723335","lay down","0"
"69096354500887","3","-0.9854998","0.30278888","9.72573","lay down","0"
"69096374429585","3","-0.95914954","0.3147663","9.696984","lay down","0"
"69096394347606","3","-0.98070884","0.30757985","9.713753","lay down","0"
"69096414276304","3","-0.9974772","0.30757985","9.744894","lay down","0"
"69096434221095","3","-0.961545","0.3147663","9.711357","lay down","0"
"69096454149637","3","-0.9759179","0.3243482","9.69938","lay down","0"
"69096474078647","3","-0.9735224","0.31716177","9.723335","lay down","0"
"69096494007241","3","-0.9711269","0.30997533","9.72573","lay down","0"
"69096513928179","3","-0.9759179","0.3267437","9.713753","lay down","0"
"69096533856720","3","-0.961545","0.3123708","9.716147","lay down","0"
"69096553785106","3","-0.9711269","0.31716177","9.701775","lay down","0"
"69096573713647","3","-0.9735224","0.31716177","9.713753","lay down","0"
"69096593607866","3","-0.9735224","0.30278888","9.720939","lay down","0"
"69096613536356","3","-0.99029076","0.28841603","9.711357","lay down","0"
"69096633486147","3","-0.98789525","0.30278888","9.716147","lay down","0"
"69096653414689","3","-0.98310435","0.2812296","9.723335","lay down","0"
"69096673302189","3","-0.96873146","0.29560247","9.7353115","lay down","0"
"69096693230679","3","-0.96873146","0.3363256","9.730521","lay down","0"
"69096713200887","3","-0.9759179","0.3674668","9.744894","lay down","0"
"69096733129429","3","-0.96873146","0.31716177","9.728126","lay down","0"
"69096753057762","3","-0.9759179","0.2788341","9.685007","lay down","0"
"69096772986304","3","-0.9735224","0.28602055","9.682611","lay down","0"
"69096792912450","3","-0.9783133","0.2788341","9.77364","lay down","0"
"69096812841043","3","-0.9974772","0.25487933","9.742498","lay down","0"
"69096832768908","3","-0.93759024","0.2692522","9.670634","lay down","0"
"69096852697450","3","-0.8609349","0.33872107","9.790408","lay down","0"
"69096872592189","3","-0.85614395","0.2908115","9.816758","lay down","0"
"69096892520679","3","-0.89447165","0.25487933","9.713753","lay down","0"
"69096912463022","3","-0.9998727","0.40818995","9.538883","lay down","0"
"69096932391564","3","-1.0813189","0.513591","9.60356","lay down","0"
"69096952292189","3","-1.0142455","0.4680769","9.77364","lay down","0"
"69096972220679","3","-0.961545","0.35309395","9.7353115","lay down","0"
"69096992176564","3","-0.9088445","0.24290194","9.620329","lay down","0"
"69097012105106","3","-0.91363543","0.21176071","9.680216","lay down","0"
"69097032031043","3","-0.9567541","0.25487933","9.740103","lay down","0"
"69097051959585","3","-0.9639405","0.32913917","9.780826","lay down","0"
"69097071884377","3","-0.96873146","0.3147663","9.677821","lay down","0"
"69097091812918","3","-0.93040377","0.2716477","9.627516","lay down","0"
"69097111738804","3","-0.8896806","0.30757985","9.718544","lay down","0"
"69097131667345","3","-0.96633595","0.3363256","9.802386","lay down","0"
"69097151587814","3","-0.95196307","0.30278888","9.766453","lay down","0"
"69097171516304","3","-0.8681213","0.28362507","9.661052","lay down","0"
"69097191442606","3","-0.8369801","0.3938171","9.711357","lay down","0"
"69097211371147","3","-0.8896806","0.46568143","9.912578","lay down","0"
"69097231296043","3","-0.96633595","0.3267437","9.855085","lay down","0"
"69097251224533","3","-0.9854998","0.28841603","9.570024","lay down","0"
"69097271163543","3","-1.0597596","0.16145566","9.627516","lay down","0"
"69097291092137","3","-1.1747426","-0.037369043","9.823945","lay down","0"
"69097311021512","3","-1.1412059","0.058450073","9.778431","lay down","0"
"69097330950054","3","-1.0022681","0.25008836","9.605956","lay down","0"
"69097350878804","3","-0.88009876","0.3339301","9.610746","lay down","0"
"69097370812762","3","-0.95914954","0.41058543","9.79999","lay down","0"
"69097390741252","3","-1.066946","0.39621255","9.744894","lay down","0"
"69097410648075","3","-1.0190365","0.26206577","9.7353115","lay down","0"
"69097430576616","3","-0.87051684","0.19499236","9.72573","lay down","0"
"69097450520418","3","-0.9208219","0.18541045","9.596374","lay down","0"
"69097470448960","3","-0.9399857","0.2237381","9.694589","lay down","0"
"69097490363908","3","-0.86333036","0.15187375","9.7880125","lay down","0"
"69097510292397","3","-0.87770325","0.14947827","9.72573","lay down","0"
"69097530209845","3","-0.9208219","0.30757985","9.720939","lay down","0"
"69097550138387","3","-0.8393756","0.293207","9.828736","lay down","0"
"69097570039689","3","-0.8082344","0.25008836","9.790408","lay down","0"
"69097589968179","3","-0.85853946","0.20936523","9.610746","lay down","0"
"69097609939377","3","-0.8872852","0.19020142","9.646679","lay down","0"
"69097629867918","3","-0.90165806","0.24050646","9.934136","lay down","0"
"69097649792606","3","-0.9854998","0.15426922","9.905391","lay down","0"
"69097669721147","3","-1.1747426","0.08480036","9.716147","lay down","0"
"69097689646772","3","-1.2010928","0.22613358","9.723335","lay down","0"
"69097709575366","3","-0.95196307","0.513591","9.922159","lay down","0"
"69097729503283","3","-0.6022232","0.38902614","9.986836","lay down","0"
"69097749431825","3","-0.75313836","0.044077218","9.534092","lay down","0"
"69097769357085","3","-0.95914954","0.1351054","8.963968","lay down","0"
"69097789285627","3","-1.2082794","0.25487933","9.294544","lay down","0"
"69097809216877","3","-1.3615899","0.14229183","9.857482","lay down","0"
"69097829145366","3","-1.3855448","-0.0301826","9.910182","lay down","0"
"69097849050627","3","-1.2777481","-0.025391668","9.761662","lay down","0"
"69097868979116","3","-1.0909009","0.12312801","9.867063","lay down","0"
"69097888937397","3","-0.9567541","0.20936523","9.893414","lay down","0"
"69097908865991","3","-0.93759024","0.1135461","9.807176","lay down","0"
"69097928790679","3","-1.0070591","0.13750088","9.562838","lay down","0"
"69097948719272","3","-0.8968671","0.3243482","9.378386","lay down","0"
"69097968614377","3","-0.7124152","0.45849502","9.732917","lay down","0"
"69097988542918","3","-0.8010479","0.348303","9.986836","lay down","0"
"69098008496616","3","-0.9040535","-0.16432944","9.692194","lay down","0"
"69098028425210","3","-0.8753078","-0.33440837","9.704171","lay down","0"
"69098048319637","3","-0.96633595","0.08480036","9.795198","lay down","0"
"69098068248127","3","-1.1579742","0.39621255","9.943719","lay down","0"
"69098088173387","3","-1.1076692","0.3339301","9.891018","lay down","0"
"69098108101929","3","-0.9399857","0.13750088","9.701775","lay down","0"
"69098128048752","3","-0.96633595","0.08480036","9.550859","lay down","0"
"69098147977241","3","-1.1004827","0.17103758","9.574815","lay down","0"
"69098167881252","3","-1.1004827","0.19020142","9.718544","lay down","0"
"69098187809793","3","-1.0094546","0.14947827","9.840713","lay down","0"
"69098207737293","3","-0.99029076","0.14468732","9.677821","lay down","0"
"69098227665835","3","-0.98789525","0.15426922","9.560442","lay down","0"
"69098247592658","3","-0.94238114","0.07761392","9.661052","lay down","0"
"69098267521147","3","-0.961545","0.068032","9.771244","lay down","0"
"69098287450314","3","-1.026223","0.11594157","9.634702","lay down","0"
"69098307378856","3","-1.0453868","0.15666471","9.57721","lay down","0"
"69098327309637","3","-1.026223","0.17103758","9.6562605","lay down","0"
"69098347238179","3","-1.1100647","0.09677774","9.680216","lay down","0"
"69098367195835","3","-1.1986973","0.09917322","9.524509","lay down","0"
"69098387124377","3","-1.1915109","0.1255235","9.579606","lay down","0"
"69098407016095","3","-1.2154658","0.1590602","9.761662","lay down","0"
"69098426944272","3","-1.1507878","0.15187375","9.797595","lay down","0"
"69098446874220","3","-1.0909009","0.16385114","9.756871","lay down","0"
"69098466802450","3","-1.1196465","0.21176071","9.718544","lay down","0"
"69098486734533","3","-1.0022681","0.10875514","9.649075","lay down","0"
"69098506662762","3","-0.8178163","-0.08048767","9.754476","lay down","0"
"69098526625627","3","-0.8154208","0.0033540726","9.919764","lay down","0"
"69098546553856","3","-0.8729123","0.24050646","9.823945","lay down","0"
"69098566485366","3","-0.87051684","0.36507133","9.756871","lay down","0"
"69098586413595","3","-0.99029076","0.3818397","9.879041","lay down","0"
"69098606345210","3","-1.1843245","0.35069847","9.811967","lay down","0"
"69098626273387","3","-1.1555787","0.3339301","9.756871","lay down","0"
"69098646167241","3","-1.0837145","0.30518436","9.77364","lay down","0"
"69098666095470","3","-1.1459968","0.26446125","9.665843","lay down","0"
"69098686036200","3","-1.1651607","0.2716477","9.692194","lay down","0"
"69098705964377","3","-1.0956918","0.28362507","9.759267","lay down","0"
"69098725893387","3","-1.1196465","0.26206577","9.694589","lay down","0"
"69098745821616","3","-1.1100647","0.23571551","9.613143","lay down","0"
"69098765751200","3","-1.1028782","0.13989636","9.649075","lay down","0"
"69098785679429","3","-1.0813189","0.07042748","9.7353115","lay down","0"
"69098805600887","3","-1.1579742","0.05365914","9.687403","lay down","0"
"69098825529168","3","-1.1483923","0.08480036","9.586792","lay down","0"
"69098845455627","3","-0.89207613","0.3459075","9.608352","lay down","0"
"69098865383804","3","-1.3544035","0.24050646","9.730521","lay down","0"
"69098885340679","3","-1.6155107","0.060845554","9.94851","lay down","0"
"69098905268908","3","-1.402313","0.039286286","9.790408","lay down","0"
"69098925168179","3","-1.0405958","0.20457427","9.644284","lay down","0"
"69098945096408","3","-0.87770325","0.23332003","9.620329","lay down","0"
"69098965039272","3","-1.0429913","0.1686421","9.740103","lay down","0"
"69098984967450","3","-1.1963019","0.16624661","9.821548","lay down","0"
"69099004884116","3","-1.1507878","0.15666471","9.742498","lay down","0"
"69099024812345","3","-1.1244376","0.091986775","9.639493","lay down","0"
"69099044741564","3","-1.1220421","0.08719584","9.584397","lay down","0"
"69099064669793","3","-1.1412059","0.15426922","9.668239","lay down","0"
"69099084625522","3","-1.1723471","0.17822403","9.740103","lay down","0"
"69099104553804","3","-1.1699517","0.18541045","9.740103","lay down","0"
"69099124474325","3","-1.1986973","0.2021788","9.680216","lay down","0"
"69099144402554","3","-1.1771381","0.20936523","9.668239","lay down","0"
"69099164306720","3","-1.1939064","0.19978333","9.7353115","lay down","0"
"69099184234950","3","-1.1986973","0.22134264","9.785617","lay down","0"
"69099204160314","3","-1.18672","0.19020142","9.761662","lay down","0"
"69099224088543","3","-1.1483923","0.1686421","9.730521","lay down","0"
"69099244010939","3","-1.1579742","0.16385114","9.704171","lay down","0"
"69099263939116","3","-1.1651607","0.16624661","9.730521","lay down","0"
"69099283874741","3","-1.1412059","0.16624661","9.740103","lay down","0"
"69099303802970","3","-1.131624","0.1590602","9.716147","lay down","0"
"69099323728752","3","-1.1340195","0.18541045","9.649075","lay down","0"
"69099343656981","3","-1.1292286","0.18780592","9.653866","lay down","0"
"69099363578231","3","-1.1412059","0.17103758","9.663447","lay down","0"
"69099383506460","3","-1.1627653","0.18780592","9.649075","lay down","0"
"69099403435002","3","-1.1699517","0.19978333","9.694589","lay down","0"
"69099423363179","3","-1.1939064","0.1806195","9.7353115","lay down","0"
"69099443284168","3","-1.1843245","0.1806195","9.704171","lay down","0"
"69099463212397","3","-1.1723471","0.1806195","9.665843","lay down","0"
"69099483142345","3","-1.1939064","0.1590602","9.67303","lay down","0"
"69099503070575","3","-1.2130703","0.15666471","9.72573","lay down","0"
"69099522991147","3","-1.2034883","0.15187375","9.728126","lay down","0"
"69099542919377","3","-1.2010928","0.16385114","9.730521","lay down","0"
"69099562845835","3","-1.1986973","0.17822403","9.776035","lay down","0"
"69099582774064","3","-1.1675562","0.17343305","9.77364","lay down","0"
"69099602698387","3","-1.1603698","0.19020142","9.742498","lay down","0"
"69099622626616","3","-1.1723471","0.19499236","9.742498","lay down","0"
"69099642556252","3","-1.1555787","0.18541045","9.711357","lay down","0"
"69099662484533","3","-1.1340195","0.19259688","9.682611","lay down","0"
"69099682412397","3","-1.136415","0.1806195","9.696984","lay down","0"
"69099702340627","3","-1.1675562","0.1686421","9.665843","lay down","0"
"69099722241356","3","-1.1795335","0.1686421","9.682611","lay down","0"
"69099742169533","3","-1.1891155","0.1686421","9.665843","lay down","0"
"69099762139064","3","-1.2034883","0.16624661","9.692194","lay down","0"
"69099782067293","3","-1.2010928","0.17822403","9.706566","lay down","0"
"69099801979793","3","-1.1986973","0.17582853","9.69938","lay down","0"
"69099821908022","3","-1.18672","0.17822403","9.728126","lay down","0"
"69099841818231","3","-1.18672","0.18541045","9.744894","lay down","0"
"69099861683283","3","-1.2130703","0.17343305","9.711357","lay down","0"
"69099881685835","3","-1.2154658","0.17582853","9.720939","lay down","0"
"69099901614064","3","-1.2130703","0.17582853","9.728126","lay down","0"
"69099921525575","3","-1.1747426","0.19020142","9.74729","lay down","0"
"69099941453700","3","-1.1627653","0.19499236","9.723335","lay down","0"
"69099961370002","3","-1.1771381","0.17582853","9.680216","lay down","0"
"69099981298231","3","-1.1699517","0.16145566","9.687403","lay down","0"
"69100001214585","3","-1.1723471","0.16145566","9.711357","lay down","0"
"69100021142762","3","-1.1579742","0.14947827","9.696984","lay down","0"
"69100041070314","3","-1.1603698","0.16385114","9.680216","lay down","0"
"69100060998543","3","-1.1747426","0.18301497","9.711357","lay down","0"
"69100080932502","3","-1.1771381","0.1686421","9.701775","lay down","0"
"69100100860731","3","-1.1723471","0.17343305","9.704171","lay down","0"
"69100120777397","3","-1.1819291","0.18541045","9.711357","lay down","0"
"69100140705627","3","-1.2082794","0.18541045","9.728126","lay down","0"
"69100160635835","3","-1.2082794","0.17103758","9.720939","lay down","0"
"69100180564064","3","-1.1843245","0.18541045","9.706566","lay down","0"
"69100200484585","3","-1.1771381","0.18541045","9.711357","lay down","0"
"69100220412814","3","-1.1723471","0.18301497","9.706566","lay down","0"
"69100240332502","3","-1.1986973","0.17822403","9.723335","lay down","0"
"69100260260731","3","-1.1986973","0.17343305","9.692194","sit up","0"
"69100280182502","3","-1.1891155","0.1590602","9.687403","sit up","0"
"69100300110731","3","-1.1675562","0.17103758","9.696984","sit up","0"
"69100320039585","3","-1.1723471","0.17103758","9.701775","sit up","0"
"69100339967814","3","-1.1747426","0.1686421","9.694589","sit up","0"
"69100359864950","3","-1.1843245","0.16624661","9.716147","sit up","0"
"69100379793179","3","-1.1843245","0.17582853","9.713753","sit up","0"
"69100399712137","3","-1.1843245","0.18541045","9.685007","sit up","0"
"69100419640418","3","-1.1963019","0.19259688","9.713753","sit up","0"
"69100439588647","3","-1.1819291","0.17582853","9.716147","sit up","0"
"69100459516877","3","-1.1843245","0.17343305","9.718544","sit up","0"
"69100479411252","3","-1.1915109","0.18301497","9.689797","sit up","0"
"69100499339481","3","-1.1915109","0.18780592","9.689797","sit up","0"
"69100519258127","3","-1.1723471","0.17582853","9.706566","sit up","0"
"69100539186356","3","-1.1843245","0.15666471","9.685007","sit up","0"
"69100559114950","3","-1.1795335","0.1590602","9.69938","sit up","0"
"69100579043179","3","-1.1651607","0.17343305","9.716147","sit up","0"
"69100598990314","3","-1.1627653","0.16624661","9.711357","sit up","0"
"69100618918543","3","-1.1699517","0.1590602","9.72573","sit up","0"
"69100638827137","3","-1.1507878","0.1686421","9.67303","sit up","0"
"69100658755366","3","-1.2010928","0.1806195","9.67303","sit up","0"
"69100678670054","3","-1.2058839","0.16385114","9.72573","sit up","0"
"69100698598335","3","-1.136415","0.11115062","9.685007","sit up","0"
"69100718513283","3","-1.1412059","0.039286286","9.661052","sit up","0"
"69100738441512","3","-1.2058839","0.010540515","9.704171","sit up","0"
"69100758368231","3","-1.2490025","0.10875514","9.682611","sit up","0"
"69100778296408","3","-1.301703","0.35309395","9.677821","sit up","0"
"69100798221252","3","-1.2298386","0.30757985","9.795198","sit up","0"
"69100818149481","3","-1.071737","0.27404314","9.850295","sit up","0"
"69100838071460","3","-1.1627653","0.3938171","9.65147","sit up","0"
"69100857999585","3","-1.2154658","0.28362507","9.795198","sit up","0"
"69100877942866","3","-1.1699517","0.15666471","9.780826","sit up","0"
"69100897871095","3","-1.1843245","0.14229183","9.596374","sit up","0"
"69100917772397","3","-1.1196465","0.2237381","9.601165","sit up","0"
"69100937699950","3","-1.0094546","0.27404314","9.637098","sit up","0"
"69100957615991","3","-1.1579742","0.2572748","9.720939","sit up","0"
"69100977543439","3","-1.3184713","0.19020142","9.713753","sit up","0"
"69100997493491","3","-1.3184713","0.15187375","9.69938","sit up","0"
"69101017421043","3","-1.352008","0.1590602","9.596374","sit up","0"
"69101037328752","3","-1.1292286","0.17103758","9.613143","sit up","0"
"69101057256304","3","-0.9759179","0.20936523","9.797595","sit up","0"
"69101077208439","3","-1.2633753","0.17103758","9.785617","sit up","0"
"69101097135939","3","-1.5172961","0.09917322","9.589188","sit up","0"
"69101117019064","3","-1.4861548","-0.05892834","9.7089615","sit up","0"
"69101136946564","3","-1.301703","-0.13318819","9.840713","sit up","0"
"69101156911095","3","-1.0118501","0.065636516","9.639493","sit up","0"
"69101176838595","3","-0.9639405","0.094382286","9.550859","sit up","0"
"69101196735210","3","-1.246607","0.027308851","9.704171","sit up","0"
"69101216662762","3","-1.411895","0.017726958","9.869459","sit up","0"
"69101236604689","3","-1.0525732","0.04886818","9.783222","sit up","0"
"69101256532241","3","-0.67169213","-0.013414264","9.570024","sit up","0"
"69101276473439","3","-0.9040535","-0.15474752","9.364013","sit up","0"
"69101296400939","3","-1.4214768","-0.10923341","9.574815","sit up","0"
"69101316298022","3","-1.9197364","0.3339301","9.950905","sit up","0"
"69101336225575","3","-1.8718269","0.6692971","10.013187","sit up","0"
"69101356154793","3","-1.3807538","0.42974925","9.907787","sit up","0"
"69101376082345","3","-1.2442114","0.16385114","9.756871","sit up","0"
"69101396008960","3","-1.3831493","0.24290194","9.649075","sit up","0"
"69101415936512","3","-1.4382453","0.012935996","9.675425","sit up","0"
"69101435882554","3","-1.4334543","-0.19786611","9.69938","sit up","0"
"69101455810054","3","-1.6179061","0.008145064","9.665843","sit up","0"
"69101475735679","3","-1.7328892","0.29560247","9.593979","sit up","0"
"69101495663179","3","-1.371172","0.5495232","9.639493","sit up","0"
"69101515535470","3","-1.1196465","0.43933117","9.680216","sit up","0"
"69101535463022","3","-1.1963019","0.38423517","9.685007","sit up","0"
"69101555414429","3","-1.2633753","0.45370406","9.764058","sit up","0"
"69101575341981","3","-1.2561889","0.4249583","9.814363","sit up","0"
"69101595249481","3","-1.2250476","0.30518436","9.778431","sit up","0"
"69101615177033","3","-1.2226522","0.26206577","9.685007","sit up","0"
"69101635108647","3","-1.2490025","0.32913917","9.605956","sit up","0"
"69101655036200","3","-1.2825391","0.29799795","9.582001","sit up","0"
"69101674969533","3","-1.2490025","0.25008836","9.692194","sit up","0"
"69101694897033","3","-1.1412059","0.19738784","9.740103","sit up","0"
"69101714819897","3","-1.0573641","0.13270992","9.692194","sit up","0"
"69101734747450","3","-1.136415","0.08240485","9.601165","sit up","0"
"69101754647137","3","-1.1507878","0.16145566","9.591583","sit up","0"
"69101774574637","3","-1.0885054","0.26206577","9.737708","sit up","0"
"69101794524950","3","-1.0813189","0.2237381","9.749685","sit up","0"
"69101814452502","3","-1.1771381","0.1806195","9.608352","sit up","0"
"69101834383700","3","-1.1723471","0.16385114","9.579606","sit up","0"
"69101854311147","3","-1.1004827","0.1686421","9.737708","sit up","0"
"69101874231981","3","-1.1196465","0.18780592","9.74729","sit up","0"
"69101894159533","3","-1.1675562","0.20696975","9.62991","sit up","0"
"69101914055054","3","-1.1196465","0.20457427","9.704171","sit up","0"
"69101933982606","3","-1.1076692","0.23092455","9.77364","sit up","0"
"69101953929220","3","-1.1723471","0.2452974","9.713753","sit up","0"
"69101973856720","3","-1.1675562","0.19978333","9.677821","sit up","0"
"69101993770887","3","-1.1388104","0.20936523","9.7089615","sit up","0"
"69102013698127","3","-1.2226522","0.26206577","9.670634","sit up","0"
"69102033642397","3","-1.1986973","0.2788341","9.740103","sit up","0"
"69102053569585","3","-1.131624","0.2788341","9.771244","sit up","0"
"69102073492085","3","-1.1651607","0.25487933","9.730521","sit up","0"
"69102093419325","3","-1.1843245","0.27643862","9.675425","sit up","0"
"69102113341512","3","-1.1843245","0.23811097","9.718544","sit up","0"
"69102133268752","3","-1.1412059","0.23332003","9.7880125","sit up","0"
"69102153155939","3","-1.1148556","0.2596703","9.694589","sit up","0"
"69102173083179","3","-1.1196465","0.2812296","9.627516","sit up","0"
"69102192980731","3","-1.1843245","0.26206577","9.65147","sit up","0"
"69102212907918","3","-1.1771381","0.25008836","9.740103","sit up","0"
"69102232887137","3","-1.2082794","0.24050646","9.754476","sit up","0"
"69102252814377","3","-1.2490025","0.2788341","9.780826","sit up","0"
"69102272701616","3","-1.1220421","0.29799795","9.761662","sit up","0"
"69102292628856","3","-0.99029076","0.22852907","9.713753","sit up","0"
"69102312583283","3","-0.94238114","0.12791896","9.723335","sit up","0"
"69102332510470","3","-1.1028782","0.12791896","9.704171","sit up","0"
"69102352438960","3","-1.2346295","0.2237381","9.689797","sit up","0"
"69102372366200","3","-1.1052737","0.21176071","9.783222","sit up","0"
"69102392284741","3","-1.0573641","0.17103758","9.718544","sit up","0"
"69102412211981","3","-1.131624","0.13270992","9.617934","sit up","0"
"69102432099481","3","-1.1244376","0.16145566","9.677821","sit up","0"
"69102452026720","3","-1.1028782","0.20696975","9.744894","sit up","0"
"69102471968283","3","-1.1819291","0.23332003","9.742498","sit up","0"
"69102491895470","3","-1.2178612","0.21176071","9.687403","sit up","0"
"69102511819272","3","-1.1412059","0.29799795","9.639493","sit up","0"
"69102531746512","3","-1.1028782","0.33872107","9.696984","sit up","0"
"69102551661147","3","-1.1196465","0.32913917","9.792804","sit up","0"
"69102571588387","3","-1.0214319","0.30039343","9.82634","sit up","0"
"69102591493231","3","-1.0334094","0.25008836","9.718544","sit up","0"
"69102611420470","3","-1.0789235","0.2812296","9.649075","sit up","0"
"69102631350106","3","-1.0837145","0.28602055","9.641888","sit up","0"
"69102651259325","3","-1.1052737","0.27404314","9.689797","sit up","0"
"69102671194220","3","-1.1412059","0.22613358","9.768848","sit up","0"
"69102691100575","3","-1.0980873","0.2141562","9.728126","sit up","0"
"69102711027814","3","-0.9854998","0.21894714","9.665843","sit up","0"
"69102730969429","3","-0.92321736","0.19499236","9.696984","sit up","0"
"69102750896668","3","-1.0382004","0.17343305","9.744894","sit up","0"
"69102770806356","3","-1.0980873","0.19499236","9.680216","sit up","0"
"69102790733595","3","-1.0334094","0.21894714","9.62512","sit up","0"
"69102810637137","3","-0.9735224","0.23811097","9.646679","sit up","0"
"69102830564325","3","-0.96633595","0.2237381","9.704171","sit up","0"
"69102850527137","3","-1.0453868","0.22852907","9.732917","sit up","0"
"69102870454377","3","-1.0621551","0.28362507","9.69938","sit up","0"
"69102890386200","3","-1.1028782","0.2812296","9.696984","sit up","0"
"69102910313439","3","-1.1244376","0.21655168","9.742498","sit up","0"
"69102930223543","3","-1.1028782","0.18780592","9.713753","sit up","0"
"69102950150835","3","-1.0477822","0.20696975","9.713753","sit up","0"
"69102970078908","3","-1.026223","0.25008836","9.802386","sit up","0"
"69102990006147","3","-1.0405958","0.2692522","9.742498","sit up","0"
"69103009876356","3","-1.0909009","0.2141562","9.661052","sit up","0"
"69103029803543","3","-1.0932963","0.20696975","9.668239","sit up","0"
"69103049745002","3","-1.0238274","0.23811097","9.754476","sit up","0"
"69103069672241","3","-1.0597596","0.25487933","9.766453","sit up","0"
"69103089578231","3","-1.1436014","0.25248384","9.771244","sit up","0"
"69103109505418","3","-1.131624","0.26685673","9.75208","sit up","0"
"69103129449325","3","-1.0885054","0.30039343","9.732917","sit up","0"
"69103149376564","3","-1.031014","0.28602055","9.713753","sit up","0"
"69103169285210","3","-1.0741324","0.27643862","9.7353115","sit up","0"
"69103189212450","3","-1.1028782","0.26206577","9.771244","sit up","0"
"69103209165314","3","-1.0405958","0.2692522","9.74729","sit up","0"
"69103229092554","3","-1.0693415","0.25248384","9.661052","sit up","0"
"69103249007918","3","-1.1412059","0.20696975","9.711357","sit up","0"
"69103268935158","3","-1.0956918","0.19738784","9.680216","sit up","0"
"69103288840575","3","-1.0861099","0.22613358","9.627516","sit up","0"
"69103308767814","3","-1.0549687","0.19020142","9.716147","sit up","0"
"69103328700887","3","-1.0429913","0.17822403","9.720939","sit up","0"
"69103348628127","3","-1.0909009","0.19738784","9.62991","sit up","0"
"69103368533700","3","-1.1148556","0.20457427","9.744894","sit up","0"
"69103388460939","3","-1.071737","0.24050646","9.77364","sit up","0"
"69103408380106","3","-1.0334094","0.26446125","9.665843","sit up","0"
"69103428307345","3","-1.026223","0.25008836","9.711357","sit up","0"
"69103448268960","3","-1.0382004","0.22852907","9.764058","sit up","0"
"69103468196252","3","-1.0549687","0.26446125","9.74729","sit up","0"
"69103488070575","3","-1.0956918","0.24290194","9.7353115","sit up","0"
"69103507997814","3","-1.1148556","0.2452974","9.694589","sit up","0"
"69103527956408","3","-1.1052737","0.2716477","9.706566","sit up","0"
"69103547883647","3","-1.0909009","0.24290194","9.723335","sit up","0"
"69103567793595","3","-1.0645506","0.22134264","9.711357","sit up","0"
"69103587720835","3","-1.066946","0.22613358","9.680216","sit up","0"
"69103607629064","3","-1.076528","0.2452974","9.701775","sit up","0"
"69103627556304","3","-1.0861099","0.2452974","9.7353115","sit up","0"
"69103647473127","3","-1.0885054","0.25248384","9.704171","sit up","0"
"69103667400366","3","-1.0885054","0.23811097","9.72573","sit up","0"
"69103687326877","3","-1.0573641","0.2237381","9.720939","sit up","0"
"69103707253491","3","-1.0597596","0.21894714","9.668239","sit up","0"
"69103727206772","3","-1.071737","0.22134264","9.74729","sit up","0"
"69103747133387","3","-1.0621551","0.23332003","9.728126","sit up","0"
"69103767040210","3","-1.0693415","0.2452974","9.685007","sit up","0"
"69103786966825","3","-1.0597596","0.25008836","9.732917","sit up","0"
"69103806882345","3","-1.071737","0.2716477","9.74729","sit up","0"
"69103826808960","3","-1.071737","0.25248384","9.701775","sit up","0"
"69103846758647","3","-1.0741324","0.23571551","9.718544","sit up","0"
"69103866685262","3","-1.0837145","0.22852907","9.723335","sit up","0"
"69103886608127","3","-1.0789235","0.22613358","9.72573","sit up","0"
"69103906534741","3","-1.0597596","0.2452974","9.689797","sit up","0"
"69103926423908","3","-1.0885054","0.22613358","9.689797","sit up","0"
"69103946350522","3","-1.0885054","0.2237381","9.72573","sit up","0"
"69103966288960","3","-1.0837145","0.22613358","9.706566","sit up","0"
"69103986215575","3","-1.0741324","0.2237381","9.685007","sit up","0"
"69104006117918","3","-1.0693415","0.23811097","9.692194","sit up","0"
"69104026044533","3","-1.0693415","0.2476929","9.723335","sit up","0"
"69104045975054","3","-1.071737","0.2452974","9.72573","sit up","0"
"69104065901720","3","-1.0525732","0.23811097","9.718544","sit up","0"
"69104085849429","3","-1.0621551","0.23571551","9.706566","sit up","0"
"69104105776043","3","-1.0549687","0.2476929","9.716147","sit up","0"
"69104125686616","3","-1.0645506","0.2452974","9.723335","sit up","0"
"69104145613231","3","-1.0741324","0.22852907","9.723335","sit up","0"
"69104165533283","3","-1.071737","0.23571551","9.706566","sit up","0"
"69104185459897","3","-1.0549687","0.2452974","9.704171","sit up","0"
"69104205374272","3","-1.0549687","0.24290194","9.7089615","sit up","0"
"69104225300887","3","-1.0789235","0.25008836","9.720939","sit up","0"
"69104245183960","3","-1.0741324","0.23332003","9.72573","sit up","0"
"69104265110575","3","-1.0741324","0.2237381","9.711357","stand up","0"
"69104285077658","3","-1.076528","0.24050646","9.72573","stand up","0"
"69104305004272","3","-1.0789235","0.22852907","9.706566","stand up","0"
"69104324919741","3","-1.071737","0.22134264","9.730521","stand up","0"
"69104344846356","3","-1.0358049","0.23571551","9.742498","stand up","0"
"69104364748335","3","-1.0549687","0.24290194","9.706566","stand up","0"
"69104384674950","3","-1.0741324","0.23092455","9.701775","stand up","0"
"69104404623700","3","-1.0645506","0.22134264","9.7353115","stand up","0"
"69104424550314","3","-1.071737","0.23332003","9.723335","stand up","0"
"69104444439689","3","-1.0837145","0.23571551","9.713753","stand up","0"
"69104464366356","3","-1.0645506","0.23092455","9.7089615","stand up","0"
"69104484296564","3","-1.0621551","0.23092455","9.689797","stand up","0"
"69104504223231","3","-1.0789235","0.23332003","9.689797","stand up","0"
"69104524120418","3","-1.0813189","0.22852907","9.694589","stand up","0"
"69104544047033","3","-1.0837145","0.22613358","9.685007","stand up","0"
"69104563990366","3","-1.0501777","0.2237381","9.720939","stand up","0"
"69104583916981","3","-1.031014","0.22134264","9.713753","stand up","0"
"69104603847814","3","-1.0741324","0.2452974","9.653866","stand up","0"
"69104623774429","3","-1.126833","0.22852907","9.639493","stand up","0"
"69104643695887","3","-1.1148556","0.22852907","9.7353115","stand up","0"
"69104663622502","3","-1.0956918","0.23332003","9.759267","stand up","0"
"69104683538856","3","-1.0813189","0.24050646","9.730521","stand up","0"
"69104703465470","3","-1.0549687","0.25487933","9.740103","stand up","0"
"69104723369064","3","-1.076528","0.26206577","9.737708","stand up","0"
"69104743295106","3","-1.066946","0.26206577","9.730521","stand up","0"
"69104763212814","3","-1.0693415","0.25008836","9.701775","stand up","0"
"69104783138908","3","-1.0741324","0.2476929","9.704171","stand up","0"
"69104803053022","3","-1.066946","0.2452974","9.732917","stand up","0"
"69104822979116","3","-1.0477822","0.22613358","9.766453","stand up","0"
"69104842913908","3","-1.0525732","0.24050646","9.740103","stand up","0"
"69104862839950","3","-1.0813189","0.2476929","9.713753","stand up","0"
"69104882758700","3","-1.0885054","0.24050646","9.732917","stand up","0"
"69104902684741","3","-1.0789235","0.21894714","9.756871","stand up","0"
"69104922604325","3","-1.0573641","0.2141562","9.706566","stand up","0"
"69104942530366","3","-1.0549687","0.24050646","9.637098","stand up","0"
"69104962484168","3","-1.1100647","0.23811097","9.701775","stand up","0"
"69104982410262","3","-1.076528","0.22852907","9.766453","stand up","0"
"69105002300106","3","-1.0573641","0.23811097","9.704171","stand up","0"
"69105022226147","3","-1.0789235","0.23092455","9.685007","stand up","0"
"69105042175470","3","-1.0909009","0.23332003","9.771244","stand up","0"
"69105062101564","3","-1.0956918","0.25487933","9.768848","stand up","0"
"69105082002085","3","-1.0477822","0.27643862","9.720939","stand up","0"
"69105101928179","3","-1.0238274","0.25248384","9.74729","stand up","0"
"69105121864168","3","-1.0909009","0.23571551","9.740103","stand up","0"
"69105141790210","3","-1.1100647","0.20936523","9.69938","stand up","0"
"69105161691720","3","-1.0429913","0.23332003","9.740103","stand up","0"
"69105181617762","3","-1.0094546","0.23811097","9.742498","stand up","0"
"69105201538283","3","-1.031014","0.22852907","9.682611","stand up","0"
"69105221464325","3","-1.0238274","0.26206577","9.694589","stand up","0"
"69105241382397","3","-1.0429913","0.26206577","9.780826","stand up","0"
"69105261308491","3","-1.0453868","0.2141562","9.766453","stand up","0"
"69105281263127","3","-1.0405958","0.17822403","9.665843","stand up","0"
"69105301189168","3","-1.0573641","0.18301497","9.661052","stand up","0"
"69105321077033","3","-1.0405958","0.20936523","9.696984","stand up","0"
"69105341003075","3","-1.0334094","0.32913917","9.723335","stand up","0"
"69105360906043","3","-1.1220421","0.39860803","9.795198","stand up","0"
"69105380832085","3","-1.1555787","0.36507133","9.845504","stand up","0"
"69105400788231","3","-1.1196465","0.26685673","9.74729","stand up","0"
"69105420714325","3","-1.0453868","0.15666471","9.59877","stand up","0"
"69105440618752","3","-0.94477665","0.101568714","9.62512","stand up","0"
"69105460544793","3","-0.9184264","0.1351054","9.7353115","stand up","0"
"69105480458908","3","-1.1172512","0.21176071","9.7880125","stand up","0"
"69105500385002","3","-1.296912","0.2021788","9.744894","stand up","0"
"69105520340158","3","-0.9711269","0.1255235","9.783222","stand up","0"
"69105540266252","3","-0.7172062","0.029704332","9.637098","stand up","0"
"69105560184064","3","-0.8729123","0.0800094","9.440668","stand up","0"
"69105580110158","3","-1.0645506","0.15426922","9.641888","stand up","0"
"69105600003595","3","-1.1004827","0.19738784","9.936532","stand up","0"
"69105619929637","3","-1.0382004","0.1470828","9.886227","stand up","0"
"69105639849793","3","-0.90165806","0.05365914","9.65147","stand up","0"
"69105659775835","3","-0.8082344","0.11594157","9.562838","stand up","0"
"69105679714845","3","-0.80344343","0.18301497","9.7089615","stand up","0"
"69105699640939","3","-0.851353","0.17103758","9.838318","stand up","0"
"69105719572970","3","-0.94238114","0.12791896","9.77364","stand up","0"
"69105739499012","3","-0.91363543","0.13031444","9.696984","stand up","0"
"69105759397397","3","-0.85853946","0.18780592","9.7353115","stand up","0"
"69105779323491","3","-1.0070591","0.16385114","9.713753","stand up","0"
"69105799264220","3","-1.0525732","0.18541045","9.704171","stand up","0"
"69105819190262","3","-0.99029076","0.18780592","9.783222","stand up","0"
"69105839052241","3","-0.99029076","0.16145566","9.768848","stand up","0"
"69105858978283","3","-0.9639405","0.1590602","9.646679","stand up","0"
"69105878973908","3","-0.92321736","0.14468732","9.696984","stand up","0"
"69105898900002","3","-0.9399857","0.1686421","9.771244","stand up","0"
"69105918787033","3","-0.9327993","0.1590602","9.72573","stand up","0"
"69105938713075","3","-0.961545","0.1686421","9.687403","stand up","0"
"69105958673856","3","-0.96873146","0.15426922","9.701775","stand up","0"
"69105978599950","3","-1.0190365","0.16624661","9.720939","stand up","0"
"69105998517814","3","-1.0214319","0.17343305","9.730521","stand up","0"
"69106018443856","3","-0.9974772","0.17103758","9.718544","stand up","0"
"69106038364585","3","-0.91124","0.17582853","9.689797","stand up","0"
"69106058290627","3","-0.95196307","0.13989636","9.716147","stand up","0"
"69106078199168","3","-0.9399857","0.15187375","9.75208","stand up","0"
"69106098125210","3","-0.9543586","0.1470828","9.761662","stand up","0"
"69106118029585","3","-0.9208219","0.1470828","9.704171","stand up","0"
"69106137955679","3","-0.95196307","0.16145566","9.692194","stand up","0"
"69106157893179","3","-0.99508166","0.17582853","9.718544","stand up","0"
"69106177819220","3","-1.0142455","0.17343305","9.761662","stand up","0"
"69106197744220","3","-0.9854998","0.15666471","9.728126","stand up","0"
"69106217670262","3","-0.94477665","0.1686421","9.69938","stand up","0"
"69106237591200","3","-0.9543586","0.17582853","9.711357","stand up","0"
"69106257517241","3","-0.9783133","0.14947827","9.744894","stand up","0"
"69106277446616","3","-0.98789525","0.15666471","9.768848","stand up","0"
"69106297372710","3","-0.92321736","0.15426922","9.728126","stand up","0"
"69106317283543","3","-0.8729123","0.15426922","9.687403","stand up","0"
"69106337209637","3","-0.89447165","0.13750088","9.675425","stand up","0"
"69106357166252","3","-0.98310435","0.16624661","9.728126","stand up","0"
"69106377092345","3","-1.0477822","0.18780592","9.744894","stand up","0"
"69106396985054","3","-1.0453868","0.18541045","9.768848","stand up","0"
"69106416911147","3","-0.92321736","0.14947827","9.77364","stand up","0"
"69106436851147","3","-0.85853946","0.14468732","9.675425","stand up","0"
"69106456777189","3","-0.9208219","0.14947827","9.668239","stand up","0"
"69106476703335","3","-1.0094546","0.15187375","9.766453","stand up","0"
"69106496607866","3","-1.0238274","0.1686421","9.771244","stand up","0"
"69106516533908","3","-0.9926863","0.18541045","9.696984","stand up","0"
"69106536455314","3","-0.9256128","0.1686421","9.682611","stand up","0"
"69106556381408","3","-0.91363543","0.1470828","9.744894","stand up","0"
"69106576303543","3","-0.94477665","0.14947827","9.742498","stand up","0"
"69106596229637","3","-0.98310435","0.1686421","9.689797","stand up","0"
"69106616154012","3","-0.98070884","0.1686421","9.704171","stand up","0"
"69106636080106","3","-0.96873146","0.1686421","9.728126","stand up","0"
"69106655997345","3","-0.9495676","0.15187375","9.737708","stand up","0"
"69106675923387","3","-0.94477665","0.15187375","9.737708","stand up","0"
"69106695844845","3","-0.93759024","0.15666471","9.72573","stand up","0"
"69106715770939","3","-0.96873146","0.17103758","9.716147","stand up","0"
"69106735718387","3","-0.9783133","0.17103758","9.732917","stand up","0"
"69106755644481","3","-0.9759179","0.15426922","9.742498","stand up","0"
"69106775548387","3","-0.93519473","0.15666471","9.737708","stand up","0"
"69106795474429","3","-0.9399857","0.15187375","9.7089615","stand up","0"
"69106815384897","3","-0.94238114","0.16145566","9.694589","stand up","0"
"69106835310991","3","-0.9639405","0.16145566","9.704171","stand up","0"
"69106855248127","3","-0.961545","0.16145566","9.730521","stand up","0"
"69106875174220","3","-0.96873146","0.17103758","9.740103","stand up","0"
"69106895102085","3","-0.95196307","0.16145566","9.718544","stand up","0"
"69106915028127","3","-0.9495676","0.16624661","9.704171","stand up","0"
"69106934961929","3","-0.9495676","0.14947827","9.7353115","stand up","0"
"69106954888022","3","-0.961545","0.1686421","9.744894","stand up","0"
"69106974826200","3","-0.94477665","0.16145566","9.732917","stand up","0"
"69106994752293","3","-0.96873146","0.15426922","9.711357","stand up","0"
"69107014647397","3","-0.95914954","0.15187375","9.7353115","stand up","0"
"69107034573491","3","-0.9543586","0.14947827","9.737708","stand up","0"
"69107054530314","3","-0.9639405","0.1590602","9.716147","stand up","0"
"69107074456408","3","-0.9639405","0.14947827","9.720939","stand up","0"
"69107094341356","3","-0.9711269","0.16624661","9.718544","stand up","0"
"69107114267502","3","-0.961545","0.16145566","9.737708","stand up","0"
"69107134207085","3","-0.961545","0.14947827","9.723335","stand up","0"
"69107154133179","3","-0.9495676","0.16145566","9.69938","stand up","0"
"69107174073335","3","-0.9543586","0.16145566","9.740103","stand up","0"
"69107193999429","3","-0.9735224","0.16145566","9.744894","stand up","0"
"69107213917710","3","-0.961545","0.1590602","9.7353115","stand up","0"
"69107233843752","3","-0.961545","0.1686421","9.732917","stand up","0"
"69107253740002","3","-0.9639405","0.17103758","9.72573","stand up","0"
"69107273666043","3","-0.961545","0.1590602","9.72573","stand up","0"
"69107293612814","3","-0.95914954","0.1590602","9.742498","stand up","0"
"69107313538856","3","-0.9567541","0.16385114","9.740103","stand up","0"
"69107333436304","3","-0.95914954","0.1590602","9.730521","stand up","0"
"69107353362345","3","-0.9495676","0.16145566","9.72573","stand up","0"
"69107373287814","3","-0.93759024","0.15426922","9.740103","stand up","0"
"69107393213856","3","-0.961545","0.16624661","9.742498","stand up","0"
"69107413128231","3","-0.9735224","0.1590602","9.723335","stand up","0"
"69107433054272","3","-0.9567541","0.1590602","9.723335","stand up","0"
"69107452978856","3","-0.95196307","0.15666471","9.740103","stand up","0"
"69107472904533","3","-0.9399857","0.15426922","9.730521","stand up","0"
"69107492826460","3","-0.961545","0.1686421","9.720939","stand up","0"
"69107512752189","3","-0.9567541","0.16385114","9.720939","stand up","0"
"69107532704793","3","-0.9495676","0.16624661","9.7353115","stand up","0"
"69107552630470","3","-0.96633595","0.16385114","9.7353115","stand up","0"
"69107572522866","3","-0.95914954","0.16624661","9.728126","stand up","0"
"69107592448543","3","-0.94717216","0.1590602","9.740103","stand up","0"
"69107612367137","3","-0.9495676","0.1590602","9.730521","stand up","0"
"69107632292814","3","-0.9567541","0.14947827","9.72573","stand up","0"
"69107652207762","3","-0.961545","0.1470828","9.723335","stand up","0"
"69107672133439","3","-0.9735224","0.15187375","9.732917","stand up","0"
"69107692066877","3","-0.9639405","0.14947827","9.723335","stand up","0"
"69107711992554","3","-0.95914954","0.1590602","9.730521","stand up","0"
"69107731924845","3","-0.94717216","0.16385114","9.718544","stand up","0"
"69107751850522","3","-0.961545","0.15187375","9.713753","stand up","0"
"69107771765054","3","-0.961545","0.16385114","9.732917","stand up","0"
"69107791690731","3","-0.961545","0.15187375","9.740103","stand up","0"
"69107811613543","3","-0.961545","0.14947827","9.728126","stand up","0"
"69107831539168","3","-0.9567541","0.14468732","9.7089615","stand up","0"
"69107851478075","3","-0.96633595","0.17822403","9.730521","stand up","0"
"69107871403752","3","-0.95914954","0.16385114","9.720939","stand up","0"
"69107891320887","3","-0.9639405","0.15187375","9.723335","stand up","0"
"69107911246512","3","-0.95196307","0.16145566","9.723335","stand up","0"
"69107931145627","3","-0.9543586","0.17343305","9.713753","stand up","0"
"69107951071356","3","-0.9639405","0.15666471","9.728126","stand up","0"
"69107971014585","3","-0.9639405","0.15187375","9.72573","stand up","0"
"69107990940262","3","-0.95196307","0.15666471","9.72573","stand up","0"
"69108010823647","3","-0.9495676","0.15187375","9.713753","stand up","0"
"69108030749325","3","-0.9543586","0.1470828","9.718544","stand up","0"
"69108050713022","3","-0.961545","0.15187375","9.711357","stand up","0"
"69108070638647","3","-0.961545","0.15666471","9.716147","stand up","0"
"69108090559637","3","-0.96633595","0.17103758","9.7353115","stand up","0"
"69108110485262","3","-0.9567541","0.15666471","9.728126","stand up","0"
"69108130403804","3","-0.961545","0.15187375","9.756871","stand up","0"
"69108150329429","3","-0.9543586","0.16145566","9.7353115","stand up","0"
"69108170260887","3","-0.9495676","0.17103758","9.737708","stand up","0"
"69108190186512","3","-0.961545","0.1686421","9.728126","stand up","0"
"69108210071929","3","-0.9495676","0.16145566","9.72573","stand up","0"
"69108229997658","3","-0.9567541","0.15187375","9.7353115","stand up","0"
"69108269845210","3","-0.9639405","0.1686421","9.732917","stand up","1"
"69108289770835","3","-0.95914954","0.15666471","9.718544","none","1"
"69108309716616","3","-0.94717216","0.1590602","9.72573","none","1"
"69108329642241","3","-0.94477665","0.1470828","9.7353115","none","1"
"69108349542189","3","-0.9567541","0.1590602","9.740103","none","1"
"69108369467814","3","-0.95914954","0.16385114","9.742498","none","1"
"69108389440731","3","-0.95196307","0.16624661","9.730521","none","1"
"69108409366408","3","-0.9543586","0.16145566","9.704171","none","1"
"69108429245887","3","-0.961545","0.15426922","9.732917","none","1"
"69108449171564","3","-0.95914954","0.15666471","9.740103","none","1"
"69108469100783","3","-0.95914954","0.16145566","9.716147","none","1"
"69108489026460","3","-0.9543586","0.15666471","9.728126","none","1"
"69108508956147","3","-0.96873146","0.16385114","9.730521","none","1"
"69108528881825","3","-0.9567541","0.1590602","9.740103","none","1"
"69108548796304","3","-0.9567541","0.15666471","9.720939","none","1"
"69108568721981","3","-0.95196307","0.16385114","9.7353115","none","1"
"69108588661668","3","-0.9495676","0.15666471","9.730521","none","1"
"69108608587345","3","-0.9543586","0.16624661","9.718544","none","1"
"69108628518908","3","-0.9399857","0.15426922","9.72573","none","1"
"69108648444585","3","-0.961545","0.16385114","9.749685","none","1"
"69108668364272","3","-0.9543586","0.1686421","9.72573","none","1"
"69108688289897","3","-0.95914954","0.16145566","9.716147","none","1"
"69108708203804","3","-0.9567541","0.15187375","9.716147","none","1"
"69108728129481","3","-0.95196307","0.1686421","9.732917","none","1"
"69108748036043","3","-0.94717216","0.16145566","9.728126","none","1"
"69108767961720","3","-0.96633595","0.16145566","9.730521","none","1"
"69108787887970","3","-0.9567541","0.17343305","9.704171","none","1"
"69108807813647","3","-0.9639405","0.16624661","9.723335","none","1"
"69108827738700","3","-0.95196307","0.16385114","9.737708","none","1"
"69108847664377","3","-0.94477665","0.16385114","9.730521","none","1"
"69108867576304","3","-0.94477665","0.1590602","9.723335","none","1"
"69108887501981","3","-0.96633595","0.16145566","9.713753","none","1"
"69108907402085","3","-0.96873146","0.15426922","9.7353115","none","1"
"69108927327762","3","-0.98070884","0.15187375","9.737708","none","1"
"69108947274325","3","-0.961545","0.16145566","9.737708","none","1"
"69108967200002","3","-0.96633595","0.15666471","9.7353115","none","1"
"69108987117345","3","-0.961545","0.15187375","9.72573","none","1"
"69109007043022","3","-0.9567541","0.15426922","9.732917","none","1"
"69109026966408","3","-0.95914954","0.14947827","9.730521","none","1"
"69109046892085","3","-0.95914954","0.15666471","9.732917","none","1"
"69109066813283","3","-0.9639405","0.16145566","9.740103","none","1"
"69109086738960","3","-0.9543586","0.16145566","9.730521","none","1"
"69109106648179","3","-0.9543586","0.1590602","9.732917","none","1"
"69109126573856","3","-0.9543586","0.15666471","9.749685","none","1"
"69109146502866","3","-0.9543586","0.15426922","9.728126","none","1"
"69109166428543","3","-0.95196307","0.15426922","9.728126","none","1"
"69109186354741","3","-0.96633595","0.17103758","9.749685","none","1"
"69109206280418","3","-0.95196307","0.17343305","9.749685","none","1"
"69109226189637","3","-0.94717216","0.15666471","9.732917","none","1"
"69109246115262","3","-0.961545","0.16145566","9.723335","none","1"
"69109266059585","3","-0.9759179","0.15666471","9.737708","none","1"
"69109285984950","3","-0.93519473","0.15426922","9.723335","none","1"
"69109305888075","3","-0.9543586","0.1470828","9.716147","none","1"
"69109325813439","3","-0.9759179","0.1590602","9.704171","none","1"
"69109345759064","3","-0.96873146","0.16385114","9.740103","none","1"
"69109365684429","3","-0.95196307","0.15666471","9.732917","none","1"
"69109385579377","3","-0.9543586","0.1686421","9.720939","none","1"
"69109405504741","3","-0.94717216","0.16385114","9.737708","none","1"
"69109425442918","3","-0.94477665","0.15666471","9.72573","none","1"
"69109445368283","3","-0.94477665","0.16145566","9.713753","none","1"
"69109465283960","3","-0.95196307","0.16145566","9.713753","none","1"
"69109485209377","3","-0.94717216","0.1470828","9.728126","none","1"
"69109505130262","3","-0.9543586","0.14229183","9.74729","none","1"
"69109525055679","3","-0.95914954","0.16385114","9.7353115","none","1"
"69109544966616","3","-0.95196307","0.15666471","9.72573","none","1"
"69109564891981","3","-0.95196307","0.15187375","9.716147","none","1"
"69109584820522","3","-0.9495676","0.15426922","9.742498","none","1"
"69109604745887","3","-0.95196307","0.15187375","9.723335","none","1"
"69109624676252","3","-0.95196307","0.14947827","9.728126","none","1"
"69109644601668","3","-0.961545","0.16385114","9.7353115","none","1"
"69109664502293","3","-0.9567541","0.15666471","9.72573","none","1"
"69109684427710","3","-0.9735224","0.15426922","9.716147","none","1"
"69109704371564","3","-0.95196307","0.16145566","9.718544","none","1"
"69109724296929","3","-0.9567541","0.15666471","9.711357","none","1"
"69109744226772","3","-0.9495676","0.15187375","9.740103","none","1"
"69109764152189","3","-0.93759024","0.16145566","9.740103","none","1"
"69109784042866","3","-0.9543586","0.16385114","9.7353115","none","1"
"69109803968231","3","-0.95196307","0.16145566","9.72573","none","1"
"69109823918491","3","-0.94477665","0.1590602","9.730521","none","1"
"69109843843856","3","-0.9543586","0.1590602","9.720939","none","1"
"69109863760627","3","-0.9399857","0.15187375","9.720939","none","1"
"69109883685991","3","-0.95196307","0.14468732","9.740103","none","1"
"69109903623022","3","-0.9639405","0.15426922","9.737708","none","1"
"69109923548439","3","-0.95196307","0.15426922","9.740103","none","1"
"69109943467137","3","-0.95196307","0.16624661","9.737708","none","1"
"69109963392554","3","-0.9567541","0.1686421","9.732917","none","1"
"69109983307293","3","-0.93519473","0.15426922","9.728126","none","1"
"69110003232658","3","-0.95914954","0.15666471","9.72573","none","1"
"69110023131252","3","-0.95914954","0.15187375","9.737708","none","1"
"69110043056616","3","-0.9759179","0.15187375","9.718544","none","1"
"69110062965835","3","-0.961545","0.15666471","9.7089615","none","1"
"69110082891147","3","-0.96633595","0.14947827","9.744894","none","1"
"69110102844585","3","-0.9759179","0.1351054","9.742498","none","1"
"69110122770002","3","-0.9735224","0.14468732","9.718544","none","1"
"69110142670522","3","-0.9567541","0.15666471","9.720939","none","1"
"69110162595887","3","-0.9639405","0.15666471","9.713753","none","1"
"69110182530366","3","-0.9567541","0.16624661","9.720939","none","1"
"69110202455731","3","-0.94477665","0.1686421","9.716147","none","1"
"69110222392710","3","-0.9543586","0.16385114","9.730521","none","1"
"69110242318127","3","-0.95196307","0.15426922","9.716147","none","1"
"69110262228231","3","-0.961545","0.15666471","9.720939","none","1"
"69110282153595","3","-0.95914954","0.17343305","9.713753","none","1"
"69110302066043","3","-0.9495676","0.1686421","9.716147","none","1"
"69110321990991","3","-0.9495676","0.15187375","9.730521","none","1"
"69110341935158","3","-0.94717216","0.15666471","9.713753","none","1"
"69110361860106","3","-0.961545","0.15666471","9.728126","none","1"
"69110381779481","3","-0.961545","0.15426922","9.720939","none","1"
"69110401704429","3","-0.95196307","0.14947827","9.720939","none","1"
"69110421625991","3","-0.9399857","0.15426922","9.711357","none","1"
"69110441550887","3","-0.9567541","0.14468732","9.720939","none","1"
"69110461470731","3","-0.96633595","0.15187375","9.732917","none","1"
"69110481395627","3","-0.961545","0.15187375","9.749685","none","1"
"69110501318439","3","-0.96633595","0.1686421","9.728126","none","1"
"69110521243335","3","-0.95914954","0.16624661","9.718544","none","1"
"69110541174064","3","-0.9543586","0.15666471","9.737708","none","1"
"69110561099012","3","-0.9543586","0.16624661","9.732917","none","1"
"69110581009741","3","-0.9543586","0.15187375","9.718544","none","1"
"69110600934689","3","-0.94717216","0.1470828","9.730521","none","1"
"69110620865731","3","-0.95914954","0.15187375","9.728126","none","1"
"69110640790627","3","-0.9567541","0.15426922","9.716147","none","1"
"69110660717241","3","-0.9639405","0.1590602","9.728126","none","1"
"69110680642137","3","-0.9567541","0.1590602","9.740103","none","1"
"69110700542554","3","-0.94717216","0.16385114","9.728126","none","1"
"69110720467502","3","-0.96633595","0.1590602","9.713753","none","1"
"69110740421512","3","-0.9567541","0.1590602","9.720939","none","1"
"69110760346460","3","-0.95914954","0.1470828","9.730521","none","1"
"69110780257554","3","-0.9495676","0.16145566","9.718544","none","1"
"69110800182502","3","-0.95914954","0.15187375","9.720939","none","1"
"69110820088022","3","-0.95196307","0.1590602","9.730521","none","1"
"69110840013022","3","-0.94477665","0.15666471","9.716147","none","1"
"69110859964793","3","-0.9567541","0.14947827","9.74729","none","1"
"69110879889689","3","-0.95196307","0.13989636","9.7353115","none","1"
"69110899796095","3","-0.9495676","0.14947827","9.723335","none","1"
"69110919721095","3","-0.961545","0.14468732","9.730521","none","1"
"69110939669064","3","-0.95196307","0.1590602","9.730521","none","1"
"69110959593960","3","-0.9567541","0.1590602","9.728126","none","1"
"69110979485887","3","-0.94717216","0.14947827","9.732917","none","1"
"69110999410835","3","-0.9495676","0.15426922","9.737708","none","1"
"69111019322866","3","-0.95914954","0.14468732","9.730521","none","1"
"69111039247866","3","-0.9495676","0.1470828","9.723335","none","1"
"69111059199950","3","-0.95196307","0.16385114","9.732917","none","1"
"69111079124897","3","-0.961545","0.15426922","9.723335","none","1"
"69111099049637","3","-0.9639405","0.16145566","9.720939","none","1"
"69111118974585","3","-0.9711269","0.16145566","9.7353115","none","1"
"69111138915731","3","-0.9567541","0.14947827","9.723335","none","1"
"69111158840679","3","-0.9495676","0.15666471","9.72573","none","1"
"69111178750314","3","-0.96633595","0.15187375","9.716147","none","1"
"69111198675262","3","-0.961545","0.15187375","9.706566","none","1"
"69111218618127","3","-0.961545","0.16145566","9.723335","none","1"
"69111238543075","3","-0.9567541","0.15666471","9.7353115","none","1"
"69111258433700","3","-0.95914954","0.1470828","9.718544","none","1"
"69111278358700","3","-0.9711269","0.15666471","9.7353115","none","1"
"69111298293908","3","-0.9735224","0.1470828","9.740103","none","1"
"69111318218908","3","-0.94717216","0.16145566","9.7089615","none","1"
"69111338140731","3","-0.9567541","0.1470828","9.730521","none","1"
"69111358065575","3","-0.9495676","0.15426922","9.742498","none","1"
"69111378011825","3","-0.96873146","0.15666471","9.7353115","none","1"
"69111397936668","3","-0.9735224","0.15426922","9.730521","none","1"
"69111417870366","3","-0.9567541","0.14468732","9.730521","none","1"
"69111437795158","3","-0.9495676","0.16385114","9.728126","none","1"
"69111457704220","3","-0.94717216","0.15426922","9.740103","none","1"
"69111477629064","3","-0.95196307","0.16385114","9.732917","none","1"
"69111497524741","3","-0.9495676","0.16145566","9.716147","none","1"
"69111517449637","3","-0.95914954","0.15187375","9.711357","none","1"
"69111537419064","3","-0.95196307","0.14229183","9.72573","none","1"
"69111557343908","3","-0.9495676","0.14947827","9.754476","none","1"
"69111577260522","3","-0.9639405","0.16385114","9.742498","none","1"
"69111597185366","3","-0.9495676","0.1686421","9.720939","none","1"
"69111617103127","3","-0.94477665","0.1686421","9.728126","none","1"
"69111637027970","3","-0.93759024","0.15187375","9.713753","none","1"
"69111656954533","3","-0.961545","0.16624661","9.749685","none","1"
"69111676879325","3","-0.961545","0.15666471","9.740103","none","1"
"69111696799897","3","-0.9399857","0.16624661","9.706566","none","1"
"69111716724741","3","-0.94477665","0.15666471","9.7089615","none","1"
"69111736643804","3","-0.9543586","0.15666471","9.706566","none","1"
"69111756568647","3","-0.9543586","0.14468732","9.713753","none","1"
"69111776488439","3","-0.95914954","0.15187375","9.744894","none","1"
"69111796413283","3","-0.94238114","0.1686421","9.742498","none","1"
"69111816351356","3","-0.94717216","0.14947827","9.732917","none","1"
"69111836276200","3","-0.9495676","0.14468732","9.72573","none","1"
"69111856201252","3","-0.94477665","0.15666471","9.713753","none","1"
"69111876126095","3","-0.9495676","0.15187375","9.730521","none","1"
"69111896051408","3","-0.9543586","0.15666471","9.723335","none","1"
"69111915976252","3","-0.9495676","0.15426922","9.704171","none","1"
"69111935916929","3","-0.9495676","0.15426922","9.716147","none","1"
"69111955841772","3","-0.95914954","0.1590602","9.732917","none","1"
"69111975734481","3","-0.9567541","0.16145566","9.732917","none","1"
"69111995659377","3","-0.94717216","0.1470828","9.72573","none","1"
"69112015601512","3","-0.95914954","0.15666471","9.744894","none","1"
"69112035526356","3","-0.95196307","0.16385114","9.732917","none","1"
"69112055459533","3","-0.96633595","0.15187375","9.716147","none","1"
"69112075384377","3","-0.961545","0.15426922","9.730521","none","1"
"69112095287137","3","-0.94477665","0.15666471","9.740103","none","1"
"69112115211981","3","-0.9543586","0.16385114","9.711357","none","1"
"69112135141929","3","-0.95196307","0.17103758","9.740103","none","1"
"69112155066720","3","-0.9639405","0.15187375","9.737708","none","1"
"69112174995314","3","-0.9495676","0.16385114","9.732917","none","1"
"69112194920158","3","-0.94717216","0.15187375","9.704171","none","1"
"69112214845627","3","-0.9495676","0.15426922","9.7353115","none","1"
"69112234770470","3","-0.94717216","0.15666471","9.718544","sit down","1"
"69112254702970","3","-0.9567541","0.15426922","9.723335","sit down","1"
"69112274627866","3","-0.9495676","0.15666471","9.737708","sit down","1"
"69112294540731","3","-0.94717216","0.16145566","9.728126","sit down","1"
"69112314465627","3","-0.9567541","0.1590602","9.728126","sit down","1"
"69112334380991","3","-0.94477665","0.1590602","9.713753","sit down","1"
"69112354305887","3","-0.9543586","0.14947827","9.737708","sit down","1"
"69112374227918","3","-0.9399857","0.14229183","9.723335","sit down","1"
"69112394152762","3","-0.9639405","0.1590602","9.730521","sit down","1"
"69112414106720","3","-0.9543586","0.15666471","9.72573","sit down","1"
"69112434031564","3","-0.9567541","0.15666471","9.732917","sit down","1"
"69112453922970","3","-0.9639405","0.1470828","9.730521","sit down","1"
"69112473847866","3","-0.95196307","0.15187375","9.696984","sit down","1"
"69112493781564","3","-0.94717216","0.15187375","9.730521","sit down","1"
"69112513706460","3","-0.95196307","0.1590602","9.740103","sit down","1"
"69112533645783","3","-0.9639405","0.16385114","9.730521","sit down","1"
"69112553570627","3","-0.95196307","0.16624661","9.730521","sit down","1"
"69112573481668","3","-0.961545","0.14947827","9.728126","sit down","1"
"69112593406512","3","-0.9567541","0.14229183","9.728126","sit down","1"
"69112613360158","3","-0.96873146","0.16145566","9.754476","sit down","1"
"69112633285054","3","-0.95914954","0.15187375","9.720939","sit down","1"
"69112653199325","3","-0.9495676","0.15187375","9.728126","sit down","1"
"69112673124116","3","-0.93759024","0.15666471","9.718544","sit down","1"
"69112693044012","3","-0.94477665","0.15666471","9.730521","sit down","1"
"69112712968908","3","-0.9711269","0.15187375","9.744894","sit down","1"
"69112732877033","3","-0.9711269","0.14229183","9.732917","sit down","1"
"69112752801877","3","-0.94717216","0.15426922","9.716147","sit down","1"
"69112772747866","3","-0.9495676","0.14947827","9.732917","sit down","1"
"69112792672710","3","-0.96633595","0.15187375","9.723335","sit down","1"
"69112812567345","3","-0.96873146","0.14468732","9.730521","sit down","1"
"69112832492137","3","-0.96873146","0.15666471","9.72573","sit down","1"
"69112852404377","3","-0.94477665","0.16145566","9.716147","sit down","1"
"69112872329220","3","-0.94717216","0.16145566","9.713753","sit down","1"
"69112892289637","3","-0.9327993","0.14947827","9.706566","sit down","1"
"69112912214481","3","-0.961545","0.1470828","9.7089615","sit down","1"
"69112932060887","3","-0.94238114","0.16145566","9.713753","sit down","1"
"69112951985731","3","-0.95196307","0.14468732","9.711357","sit down","1"
"69112971984481","3","-0.9639405","0.14947827","9.716147","sit down","1"
"69112991909325","3","-0.95914954","0.15187375","9.713753","sit down","1"
"69113011779064","3","-0.96873146","0.16145566","9.713753","sit down","1"
"69113031703856","3","-0.961545","0.14468732","9.720939","sit down","1"
"69113051689897","3","-0.9495676","0.1470828","9.744894","sit down","1"
"69113071614689","3","-0.93040377","0.16145566","9.720939","sit down","1"
"69113091514793","3","-0.96873146","0.15426922","9.713753","sit down","1"
"69113111439637","3","-0.98070884","0.15187375","9.728126","sit down","1"
"69113131368543","3","-0.95914954","0.15187375","9.730521","sit down","1"
"69113151293387","3","-0.9399857","0.15187375","9.713753","sit down","1"
"69113171213543","3","-0.94717216","0.16145566","9.7089615","sit down","1"
"69113191138387","3","-0.95914954","0.15426922","9.7353115","sit down","1"
"69113211060627","3","-0.9735224","0.14947827","9.744894","sit down","1"
"69113230985470","3","-0.9854998","0.17103758","9.723335","sit down","1"
"69113250938179","3","-0.9759179","0.1590602","9.7353115","sit down","1"
"69113270863022","3","-0.9759179","0.15426922","9.749685","sit down","1"
"69113290775783","3","-0.9854998","0.17103758","9.713753","sit down","1"
"69113310700627","3","-0.93759024","0.18301497","9.716147","sit down","1"
"69113330645262","3","-0.906449","0.15426922","9.749685","sit down","1"
"69113350570106","3","-0.98310435","0.1470828","9.74729","sit down","1"
"69113370466095","3","-0.9926863","0.13750088","9.713753","sit down","1"
"69113390390939","3","-0.98070884","0.15426922","9.680216","sit down","1"
"69113410310262","3","-0.94238114","0.16624661","9.718544","sit down","1"
"69113430235054","3","-0.9711269","0.1806195","9.768848","sit down","1"
"69113450190835","3","-1.016641","0.13989636","9.7353115","sit down","1"
"69113470115575","3","-0.98310435","0.14468732","9.65147","sit down","1"
"69113490031252","3","-1.0118501","0.18301497","9.701775","sit down","1"
"69113509956043","3","-1.026223","0.16624661","9.720939","sit down","1"
"69113529854220","3","-0.99029076","0.14468732","9.723335","sit down","1"
"69113549779012","3","-0.98310435","0.13750088","9.706566","sit down","1"
"69113569699012","3","-0.96633595","0.16145566","9.728126","sit down","1"
"69113589623804","3","-0.94238114","0.13989636","9.718544","sit down","1"
"69113609556825","3","-0.9088445","0.09917322","9.706566","sit down","1"
"69113629481616","3","-0.8441666","0.039286286","9.639493","sit down","1"
"69113649407033","3","-0.7938615","-0.042160004","9.67303","sit down","1"
"69113669331825","3","-0.8729123","-0.08767411","9.69938","sit down","1"
"69113689250158","3","-0.89207613","-0.1307927","9.615538","sit down","1"
"69113709207710","3","-0.8968671","-0.051741928","9.716147","sit down","1"
"69113729132450","3","-0.94477665","-0.025391668","9.680216","sit down","1"
"69113749037658","3","-1.0741324","-0.10204697","9.4646225","sit down","1"
"69113768962502","3","-1.0405958","0.04886818","9.371199","sit down","1"
"69113788876668","3","-1.1172512","0.44651762","9.596374","sit down","1"
"69113808801460","3","-1.2058839","0.8561444","9.938928","sit down","1"
"69113828727762","3","-1.2274431","0.99268675","10.207221","sit down","1"
"69113848652554","3","-1.2442114","0.6333649","10.037142","sit down","1"
"69113868602554","3","-1.2394205","0.66450614","9.74729","sit down","1"
"69113888527345","3","-1.0525732","0.68127453","9.929346","sit down","1"
"69113908420991","3","-0.91603094","0.46089047","10.068284","sit down","1"
"69113928345783","3","-1.0405958","0.31955725","9.759267","sit down","1"
"69113948275731","3","-1.0741324","0.20936523","9.601165","sit down","1"
"69113968200522","3","-1.0070591","0.15666471","9.663447","sit down","1"
"69113988124741","3","-0.9567541","0.0800094","9.692194","sit down","1"
"69114008049533","3","-0.90165806","0.05365914","9.677821","sit down","1"
"69114027970887","3","-0.91124","0.14229183","9.641888","sit down","1"
"69114047895679","3","-0.94717216","0.19020142","9.653866","sit down","1"
"69114067825939","3","-0.9759179","0.1590602","9.730521","sit down","1"
"69114087750731","3","-1.016641","0.10635966","9.687403","sit down","1"
"69114107669950","3","-1.0501777","0.13270992","9.689797","sit down","1"
"69114127594741","3","-1.0429913","0.14229183","9.730521","sit down","1"
"69114147528700","3","-1.0214319","0.12312801","9.706566","sit down","1"
"69114167453491","3","-0.99029076","0.11594157","9.617934","sit down","1"
"69114187327970","3","-1.0382004","0.11833705","9.591583","sit down","1"
"69114207252762","3","-1.0909009","0.12791896","9.644284","sit down","1"
"69114227238752","3","-1.0525732","0.14947827","9.677821","sit down","1"
"69114247163595","3","-1.016641","0.18301497","9.696984","sit down","1"
"69114267087762","3","-1.0070591","0.20457427","9.7353115","sit down","1"
"69114287012554","3","-1.016641","0.20696975","9.718544","sit down","1"
"69114306919637","3","-1.0477822","0.24290194","9.716147","sit down","1"
"69114326844429","3","-1.0334094","0.26206577","9.74729","sit down","1"
"69114346754950","3","-1.0238274","0.2812296","9.771244","sit down","1"
"69114366679741","3","-1.0046636","0.28841603","9.778431","sit down","1"
"69114386634272","3","-0.9926863","0.28841603","9.780826","sit down","1"
"69114406559064","3","-1.0358049","0.2812296","9.766453","sit down","1"
"69114426456929","3","-1.0741324","0.2788341","9.749685","sit down","1"
"69114446381720","3","-1.0932963","0.2812296","9.749685","sit down","1"
"69114466311252","3","-1.0621551","0.26206577","9.74729","sit down","1"
"69114486235991","3","-1.0238274","0.25008836","9.756871","sit down","1"
"69114506165939","3","-1.0334094","0.24290194","9.7353115","sit down","1"
"69114526090731","3","-0.9998727","0.23811097","9.718544","sit down","1"
"69114546025991","3","-0.9735224","0.2141562","9.716147","sit down","1"
"69114565950783","3","-1.0214319","0.19738784","9.696984","sit down","1"
"69114585875470","3","-1.0286185","0.17343305","9.689797","sit down","1"
"69114605800314","3","-1.0046636","0.18301497","9.685007","sit down","1"
"69114625732137","3","-0.9998727","0.17582853","9.706566","sit down","1"
"69114645656929","3","-1.0094546","0.17343305","9.670634","sit down","1"
"69114665587189","3","-1.0022681","0.17822403","9.632307","sit down","1"
"69114685511981","3","-1.0070591","0.19978333","9.682611","sit down","1"
"69114705438335","3","-1.016641","0.20936523","9.685007","sit down","1"
"69114725363127","3","-1.0046636","0.22613358","9.742498","sit down","1"
"69114745308700","3","-0.9974772","0.22134264","9.730521","sit down","1"
"69114765233543","3","-1.016641","0.21894714","9.713753","sit down","1"
"69114785163022","3","-1.0070591","0.22134264","9.749685","sit down","1"
"69114805087866","3","-1.0214319","0.23332003","9.74729","sit down","1"
"69114825012345","3","-1.0382004","0.23811097","9.756871","sit down","1"
"69114844937137","3","-1.0286185","0.21655168","9.737708","sit down","1"
"69114864852450","3","-1.0190365","0.23571551","9.740103","sit down","1"
"69114884777293","3","-1.0453868","0.22613358","9.749685","sit down","1"
"69114904733127","3","-1.0382004","0.23571551","9.732917","sit down","1"
"69114924657970","3","-1.0334094","0.23332003","9.742498","sit down","1"
"69114944574585","3","-1.026223","0.22852907","9.7353115","sit down","1"
"69114964499429","3","-1.016641","0.2141562","9.701775","sit down","1"
"69114984443543","3","-1.0070591","0.21655168","9.706566","sit down","1"
"69115004368387","3","-1.0142455","0.21894714","9.737708","sit down","1"
"69115024265731","3","-1.0022681","0.20936523","9.720939","sit down","1"
"69115044190575","3","-1.0046636","0.2021788","9.69938","sit down","1"
"69115064113335","3","-1.0022681","0.19020142","9.711357","sit down","1"
"69115084038179","3","-1.016641","0.17822403","9.704171","sit down","1"
"69115103971147","3","-1.0214319","0.19259688","9.706566","sit down","1"
"69115123895991","3","-1.0142455","0.19259688","9.704171","sit down","1"
"69115143835991","3","-1.0118501","0.19499236","9.711357","sit down","1"
"69115163760835","3","-1.0070591","0.2021788","9.7353115","sit down","1"
"69115183684429","3","-1.0190365","0.22852907","9.730521","sit down","1"
"69115203601147","3","-0.9998727","0.22134264","9.716147","sit down","1"
"69115223543439","3","-1.0118501","0.2237381","9.72573","sit down","1"
"69115243468283","3","-1.0142455","0.21655168","9.7089615","sit down","1"
"69115263383127","3","-1.016641","0.20696975","9.713753","sit down","1"
"69115283307970","3","-1.0190365","0.21655168","9.728126","sit down","1"
"69115303265575","3","-1.0334094","0.21655168","9.7353115","sit down","1"
"69115323190418","3","-1.026223","0.20936523","9.730521","sit down","1"
"69115343090575","3","-1.031014","0.21176071","9.730521","sit down","1"
"69115363015418","3","-1.016641","0.21655168","9.740103","sit down","1"
"69115382942814","3","-0.9974772","0.21176071","9.713753","sit down","1"
"69115402867658","3","-0.9854998","0.19499236","9.716147","sit down","1"
"69115422791200","3","-1.0022681","0.20457427","9.7353115","sit down","1"
"69115442716043","3","-0.9998727","0.21655168","9.740103","sit down","1"
"69115462640731","3","-1.0142455","0.19738784","9.69938","sit down","1"
"69115482565575","3","-1.0022681","0.20936523","9.7089615","sit down","1"
"69115502506095","3","-1.0238274","0.20936523","9.716147","sit down","1"
"69115522430939","3","-1.0238274","0.2021788","9.706566","sit down","1"
"69115542353335","3","-1.0238274","0.20696975","9.737708","sit down","1"
"69115562278179","3","-1.0070591","0.2141562","9.716147","sit down","1"
"69115582195210","3","-1.0118501","0.20696975","9.682611","sit down","1"
"69115602120054","3","-1.0142455","0.20696975","9.696984","sit down","1"
"69115622081616","3","-1.0118501","0.22134264","9.742498","sit down","1"
"69115642006460","3","-1.0046636","0.21894714","9.756871","sit down","1"
"69115661934689","3","-1.0214319","0.2141562","9.713753","sit down","1"
"69115681859533","3","-1.0142455","0.21655168","9.720939","sit down","1"
"69115701790575","3","-1.0214319","0.21655168","9.711357","sit down","1"
"69115721715418","3","-1.0214319","0.2237381","9.720939","sit down","1"
"69115741610835","3","-1.0214319","0.21894714","9.749685","sit down","1"
"69115761535679","3","-1.0214319","0.21655168","9.728126","sit down","1"
"69115781458231","3","-1.0238274","0.2237381","9.723335","sit down","1"
"69115801383075","3","-1.0046636","0.20696975","9.716147","sit down","1"
"69115821344637","3","-1.0070591","0.21894714","9.749685","sit down","1"
"69115841269481","3","-1.0286185","0.2021788","9.7089615","sit down","1"
"69115861202137","3","-1.0286185","0.21655168","9.696984","sit down","1"
"69115881126981","3","-1.0190365","0.20457427","9.7353115","sit down","1"
"69115901036720","3","-1.0118501","0.20696975","9.730521","sit down","1"
"69115920961564","3","-1.0070591","0.21176071","9.711357","sit down","1"
"69115940871460","3","-1.0094546","0.20457427","9.701775","sit down","1"
"69115960796304","3","-0.9998727","0.2141562","9.706566","sit down","1"
"69115980742970","3","-1.0142455","0.21655168","9.737708","sit down","1"
"69116000667814","3","-1.0022681","0.20936523","9.720939","sit down","1"
"69116020588908","3","-1.026223","0.21894714","9.720939","sit down","1"
"69116040513752","3","-1.0286185","0.20457427","9.701775","sit down","1"
"69116060445991","3","-1.0118501","0.20936523","9.718544","sit down","1"
"69116080370835","3","-1.0022681","0.20696975","9.713753","sit down","1"
"69116100296772","3","-1.0286185","0.21176071","9.69938","sit down","1"
"69116120221616","3","-1.0190365","0.21655168","9.732917","sit down","1"
"69116140150575","3","-1.0070591","0.20936523","9.723335","sit down","1"
"69116160075418","3","-1.0334094","0.20696975","9.728126","sit down","1"
"69116179998283","3","-1.0286185","0.20696975","9.701775","sit down","1"
"69116199923127","3","-1.0142455","0.20457427","9.730521","sit down","1"
"69116219852293","3","-1.0190365","0.20457427","9.72573","sit down","1"
"69116239777137","3","-1.0214319","0.2141562","9.716147","lay down","1"
"69116259688700","3","-1.0238274","0.20936523","9.728126","lay down","1"
"69116279613752","3","-1.026223","0.21176071","9.730521","lay down","1"
"69116299569168","3","-1.026223","0.21655168","9.706566","lay down","1"
"69116319494220","3","-1.0214319","0.20936523","9.72573","lay down","1"
"69116339402762","3","-1.0190365","0.21894714","9.730521","lay down","1"
"69116359327814","3","-1.0142455","0.21655168","9.730521","lay down","1"
"69116379242606","3","-1.0022681","0.21655168","9.728126","lay down","1"
"69116399167658","3","-1.0118501","0.21894714","9.718544","lay down","1"
"69116419102918","3","-1.0118501","0.21894714","9.718544","lay down","1"
"69116439027970","3","-1.016641","0.21176071","9.716147","lay down","1"
"69116458950002","3","-1.0142455","0.2141562","9.69938","lay down","1"
"69116478875054","3","-1.0142455","0.2021788","9.723335","lay down","1"
"69116498805002","3","-1.0358049","0.22852907","9.713753","lay down","1"
"69116518730054","3","-1.0142455","0.2237381","9.704171","lay down","1"
"69116538685522","3","-1.0022681","0.21655168","9.716147","lay down","1"
"69116558610627","3","-1.0094546","0.2021788","9.696984","lay down","1"
"69116578499533","3","-1.016641","0.18301497","9.704171","lay down","1"
"69116598424533","3","-1.031014","0.18541045","9.7353115","lay down","1"
"69116618369533","3","-1.0358049","0.20936523","9.730521","lay down","1"
"69116638294585","3","-1.0429913","0.20936523","9.718544","lay down","1"
"69116658207554","3","-1.026223","0.20457427","9.696984","lay down","1"
"69116678132606","3","-1.016641","0.22852907","9.756871","lay down","1"
"69116698062866","3","-1.0238274","0.2141562","9.754476","lay down","1"
"69116717987918","3","-0.99508166","0.23811097","9.732917","lay down","1"
"69116737924637","3","-0.99508166","0.2452974","9.756871","lay down","1"
"69116757849689","3","-1.0070591","0.21176071","9.716147","lay down","1"
"69116777759897","3","-1.0142455","0.21176071","9.687403","lay down","1"
"69116797684950","3","-1.0214319","0.21176071","9.768848","lay down","1"
"69116817603439","3","-0.99508166","0.23092455","9.7880125","lay down","1"
"69116837528491","3","-0.99508166","0.19978333","9.69938","lay down","1"
"69116857448283","3","-0.9759179","0.14468732","9.7353115","lay down","1"
"69116877373335","3","-0.9639405","0.13750088","9.766453","lay down","1"
"69116897310106","3","-1.0334094","0.15426922","9.661052","lay down","1"
"69116917235158","3","-1.0549687","0.18780592","9.67303","lay down","1"
"69116937146408","3","-1.026223","0.22134264","9.744894","lay down","1"
"69116957071460","3","-1.0070591","0.2452974","9.804781","lay down","1"
"69116976992606","3","-0.9998727","0.2596703","9.713753","lay down","1"
"69116996917658","3","-1.0070591","0.22613358","9.661052","lay down","1"
"69117016868908","3","-0.9854998","0.17822403","9.670634","lay down","1"
"69117036793960","3","-0.961545","0.13989636","9.653866","lay down","1"
"69117056722918","3","-0.98310435","0.16145566","9.689797","lay down","1"
"69117076647970","3","-0.9926863","0.24290194","9.761662","lay down","1"
"69117096570366","3","-1.0142455","0.3123708","9.74729","lay down","1"
"69117116495418","3","-0.9998727","0.29560247","9.641888","lay down","1"
"69117136411460","3","-0.9184264","0.2021788","9.615538","lay down","1"
"69117156336512","3","-0.89926255","0.12791896","9.694589","lay down","1"
"69117176266564","3","-0.95914954","0.1255235","9.797595","lay down","1"
"69117196191616","3","-0.9974772","0.14468732","9.867063","lay down","1"
"69117216097033","3","-1.0358049","0.13270992","9.783222","lay down","1"
"69117236022085","3","-1.031014","0.18301497","9.60356","lay down","1"
"69117255953908","3","-0.98310435","0.26685673","9.617934","lay down","1"
"69117275878960","3","-1.0382004","0.23571551","9.814363","lay down","1"
"69117295819793","3","-1.0837145","0.18301497","9.869459","lay down","1"
"69117315744950","3","-1.071737","0.20457427","9.74729","lay down","1"
"69117335673752","3","-1.0429913","0.2476929","9.62512","lay down","1"
"69117355598908","3","-1.0453868","0.2237381","9.639493","lay down","1"
"69117375500314","3","-1.0477822","0.2237381","9.77364","lay down","1"
"69117395425470","3","-1.0453868","0.18541045","9.7353115","lay down","1"
"69117415369533","3","-1.0118501","0.19499236","9.716147","lay down","1"
"69117435294689","3","-0.98789525","0.2716477","9.696984","lay down","1"
"69117455213387","3","-0.9759179","0.2476929","9.742498","lay down","1"
"69117475138595","3","-0.8872852","0.21655168","9.740103","lay down","1"
"69117495079168","3","-0.8848897","0.17822403","9.69938","lay down","1"
"69117515004325","3","-1.0238274","0.15187375","9.7089615","lay down","1"
"69117534890522","3","-1.0861099","0.17103758","9.807176","lay down","1"
"69117554815679","3","-1.071737","0.19020142","9.742498","lay down","1"
"69117574742762","3","-1.0501777","0.23811097","9.718544","lay down","1"
"69117594667918","3","-0.9759179","0.30278888","9.730521","lay down","1"
"69117614591772","3","-0.7507429","0.30039343","9.716147","lay down","1"
"69117634516929","3","-0.48724028","0.2141562","9.879041","lay down","1"
"69117654442189","3","-0.5734775","0.2908115","9.816758","lay down","1"
"69117674367345","3","-0.75313836","0.1686421","9.534092","lay down","1"
"69117694306252","3","-1.0022681","0.20457427","9.69938","lay down","1"
"69117714231356","3","-1.1507878","0.18301497","10.137753","lay down","1"
"69117734156616","3","-1.2346295","0.11594157","9.768848","lay down","1"
"69117754081825","3","-1.3208668","0.28841603","8.9999","lay down","1"
"69117773991929","3","-1.6610248","0.45370406","9.119674","lay down","1"
"69117793917085","3","-1.6179061","0.24290194","9.9796505","lay down","1"
"69117813847606","3","-1.5053186","-0.018205225","10.286272","lay down","1"
"69117833772762","3","-1.4430362","-0.022996157","9.675425","lay down","1"
"69117853699168","3","-1.3304486","0.008145064","9.452646","lay down","1"
"69117873624325","3","-1.1627653","0.07042748","9.694589","lay down","1"
"69117893549793","3","-1.031014","0.09917322","9.768848","lay down","1"
"69117913474950","3","-0.8824942","-0.025391668","9.665843","lay down","1"
"69117933416304","3","-0.94717216","-0.14037463","9.531696","lay down","1"
"69117953341460","3","-1.0501777","0.08719584","9.562838","lay down","1"
"69117973243439","3","-1.0286185","0.23332003","9.917368","lay down","1"
"69117993168595","3","-1.1963019","0.1255235","9.943719","lay down","1"
"69118013083595","3","-1.2561889","0.056054622","9.596374","lay down","1"
"69118033008752","3","-1.0214319","0.08240485","9.567629","lay down","1"
"69118052947241","3","-1.066946","0.2141562","9.814363","lay down","1"
"69118072872397","3","-1.246607","0.28602055","9.756871","lay down","1"
"69118092797450","3","-1.1531833","0.21655168","9.694589","lay down","1"
"69118112722606","3","-1.0525732","0.16385114","9.62991","lay down","1"
"69118132663335","3","-0.961545","-0.14277011","9.584397","lay down","1"
"69118152588491","3","-1.0837145","-0.39669082","9.536487","lay down","1"
"69118172494793","3","-1.1747426","0.13270992","9.562838","lay down","1"
"69118192419950","3","-1.4047086","0.95914996","9.977255","lay down","1"
"69118212346668","3","-1.7113298","1.0405962","10.267108","lay down","1"
"69118232271825","3","-1.296912","0.14229183","9.816758","lay down","1"
"69118252198179","3","-0.9280083","-0.097256005","9.181957","lay down","1"
"69118272123335","3","-1.2753527","0.45370406","9.37599","lay down","1"
"69118292040158","3","-1.567601","0.6597152","9.871854","lay down","1"
"69118311965366","3","-1.507714","0.42974925","10.051515","lay down","1"
"69118331893439","3","-1.3472171","0.16624661","9.7353115","lay down","1"
"69118351818543","3","-1.3136804","0.21176071","9.421504","lay down","1"
"69118371734325","3","-1.3088894","0.23811097","9.414318","lay down","1"
"69118391659481","3","-1.3112848","0.10396418","9.742498","lay down","1"
"69118411621200","3","-1.3400307","-0.0014368892","9.910182","lay down","1"
"69118431546356","3","-1.4262679","0.091986775","9.859877","lay down","1"
"69118451467502","3","-1.5460417","0.2716477","9.661052","lay down","1"
"69118471392658","3","-1.5340643","0.28362507","9.500555","lay down","1"
"69118491309377","3","-1.3472171","0.07042748","9.605956","lay down","1"
"69118511234481","3","-1.2801437","-0.07569671","9.778431","lay down","1"
"69118531128387","3","-1.3879402","0.0249134","9.852691","lay down","1"
"69118551053595","3","-1.4957367","0.1686421","9.828736","lay down","1"
"69118570963543","3","-1.4813639","0.18301497","9.766453","lay down","1"
"69118590888700","3","-1.3759627","0.15187375","9.653866","lay down","1"
"69118610839845","3","-1.371172","0.11594157","9.661052","lay down","1"
"69118630765002","3","-1.402313","0.15426922","9.776035","lay down","1"
"69118650691043","3","-1.4094994","0.12073253","9.847899","lay down","1"
"69118670616200","3","-1.3855448","0.08240485","9.653866","lay down","1"
"69118690546200","3","-1.2681663","0.1351054","9.5436735","lay down","1"
"69118710471356","3","-1.356799","0.47286788","9.574815","lay down","1"
"69118730399325","3","-1.742471","0.5447322","9.634702","lay down","1"
"69118750324429","3","-1.7784032","0.1470828","9.783222","lay down","1"
"69118770233543","3","-1.4598045","-0.1307927","9.756871","lay down","1"
"69118790158647","3","-1.4214768","0.027308851","9.529301","lay down","1"
"69118810098491","3","-1.466991","0.23332003","9.565233","lay down","1"
"69118830023595","3","-1.4454317","0.1806195","9.785617","lay down","1"
"69118849945731","3","-1.4454317","0.09677774","9.716147","lay down","1"
"69118869870835","3","-1.3831493","0.020122439","9.548465","lay down","1"
"69118889790054","3","-1.3759627","-0.011018783","9.644284","lay down","1"
"69118909715158","3","-1.371172","-0.006227821","9.7880125","lay down","1"
"69118929648700","3","-1.3855448","0.0800094","9.610746","lay down","1"
"69118949573804","3","-1.3448216","0.1135461","9.5173235","lay down","1"
"69118969491720","3","-1.352008","0.060845554","9.67303","lay down","1"
"69118989416772","3","-1.3663809","0.0800094","9.732917","lay down","1"
"69119009369741","3","-1.3879402","0.13270992","9.65147","lay down","1"
"69119029294793","3","-1.4622","0.1470828","9.644284","lay down","1"
"69119049225418","3","-1.4861548","0.14947827","9.807176","lay down","1"
"69119069150575","3","-1.4861548","0.16385114","9.776035","lay down","1"
"69119089040731","3","-1.4933412","0.1590602","9.713753","lay down","1"
"69119108965835","3","-1.5340643","0.11594157","9.780826","lay down","1"
"69119128905314","3","-1.4909458","0.09917322","9.766453","lay down","1"
"69119148830470","3","-1.4550136","0.13031444","9.665843","lay down","1"
"69119168747762","3","-1.4645956","0.11594157","9.692194","lay down","1"
"69119188672866","3","-1.4238724","0.10875514","9.665843","lay down","1"
"69119208606929","3","-1.4214768","0.09677774","9.560442","lay down","1"
"69119228532033","3","-1.3951266","0.09917322","9.593979","lay down","1"
"69119248447293","3","-1.4286633","0.1135461","9.663447","lay down","1"
"69119268372397","3","-1.4478271","0.13031444","9.704171","lay down","1"
"69119288304272","3","-1.471782","0.14468732","9.680216","lay down","1"
"69119308229377","3","-1.4837593","0.14947827","9.665843","lay down","1"
"69119328156043","3","-1.4765729","0.15187375","9.653866","lay down","1"
"69119348081147","3","-1.4957367","0.14229183","9.692194","lay down","1"
"69119368029585","3","-1.5101097","0.13750088","9.72573","lay down","1"
"69119387954689","3","-1.5412508","0.13989636","9.778431","lay down","1"
"69119407866877","3","-1.5268779","0.12312801","9.732917","lay down","1"
"69119427791981","3","-1.5196915","0.11833705","9.67303","lay down","1"
"69119447709116","3","-1.4622","0.12073253","9.65147","lay down","1"
"69119467634168","3","-1.4214768","0.10396418","9.704171","lay down","1"
"69119487565627","3","-1.4454317","0.0800094","9.675425","lay down","1"
"69119507490731","3","-1.4741774","0.07761392","9.637098","lay down","1"
"69119527442554","3","-1.5005276","0.08240485","9.646679","lay down","1"
"69119547367658","3","-1.4861548","0.091986775","9.6562605","lay down","1"
"69119567257293","3","-1.4861548","0.10635966","9.637098","lay down","1"
"69119587182397","3","-1.4909458","0.11833705","9.617934","lay down","1"
"69119607106043","3","-1.5005276","0.13270992","9.620329","lay down","1"
"69119627031200","3","-1.5268779","0.13031444","9.641888","lay down","1"
"69119646959429","3","-1.522087","0.11833705","9.653866","lay down","1"
"69119666884533","3","-1.507714","0.12073253","9.649075","lay down","1"
"69119686798179","3","-1.5053186","0.10875514","9.644284","lay down","1"
"69119706723283","3","-1.5244825","0.10875514","9.663447","lay down","1"
"69119726686616","3","-1.5556237","0.12312801","9.69938","lay down","1"
"69119746611720","3","-1.5795784","0.11833705","9.754476","lay down","1"
"69119766520991","3","-1.5939513","0.11594157","9.768848","lay down","1"
"69119786446147","3","-1.6394655","0.11833705","9.732917","lay down","1"
"69119806385887","3","-1.6346745","0.11115062","9.7089615","lay down","1"
"69119826311043","3","-1.5987422","0.12312801","9.696984","lay down","1"
"69119846212762","3","-1.5987422","0.12791896","9.670634","lay down","1"
"69119866137918","3","-1.5987422","0.13270992","9.649075","lay down","1"
"69119886065627","3","-1.6059287","0.1351054","9.644284","lay down","1"
"69119905990783","3","-1.5915558","0.13031444","9.668239","lay down","1"
"69119925917033","3","-1.5747875","0.11594157","9.661052","lay down","1"
"69119945842189","3","-1.577183","0.12791896","9.649075","lay down","1"
"69119965740522","3","-1.5867649","0.13750088","9.658657","lay down","1"
"69119985702658","3","-1.5891604","0.12073253","9.6562605","lay down","1"
"69120005625679","3","-1.5915558","0.14229183","9.615538","lay down","1"
"69120025550887","3","-1.5891604","0.14468732","9.658657","lay down","1"
"69120045482918","3","-1.5987422","0.1351054","9.670634","lay down","1"
"69120065408127","3","-1.5987422","0.1351054","9.658657","lay down","1"
"69120085331720","3","-1.6179061","0.15426922","9.649075","lay down","1"
"69120105256877","3","-1.6107197","0.15187375","9.680216","lay down","1"
"69120125164377","3","-1.6203016","0.14947827","9.701775","lay down","1"
"69120145089533","3","-1.6179061","0.14229183","9.696984","lay down","1"
"69120165025679","3","-1.6035333","0.14947827","9.65147","lay down","1"
"69120184950835","3","-1.6011379","0.14468732","9.661052","lay down","1"
"69120204872137","3","-1.6226971","0.13989636","9.680216","lay down","1"
"69120224797293","3","-1.6059287","0.13031444","9.682611","lay down","1"
"69120244703647","3","-1.6011379","0.14229183","9.637098","sit up","1"
"69120264628804","3","-1.5963469","0.14229183","9.610746","sit up","1"
"69120284563908","3","-1.5891604","0.1255235","9.605956","sit up","1"
"69120304489064","3","-1.577183","0.14947827","9.637098","sit up","1"
"69120324404220","3","-1.5843694","0.1351054","9.653866","sit up","1"
"69120344329377","3","-1.5939513","0.12312801","9.668239","sit up","1"
"69120364254064","3","-1.5939513","0.14229183","9.661052","sit up","1"
"69120384179220","3","-1.6226971","0.1351054","9.653866","sit up","1"
"69120404097814","3","-1.6179061","0.1255235","9.670634","sit up","1"
"69120424023022","3","-1.5963469","0.14947827","9.663447","sit up","1"
"69120443955418","3","-1.5843694","0.15426922","9.661052","sit up","1"
"69120463880575","3","-1.5843694","0.15187375","9.661052","sit up","1"
"69120483804741","3","-1.5939513","0.16385114","9.670634","sit up","1"
"69120503729897","3","-1.6083243","0.16385114","9.646679","sit up","1"
"69120523631720","3","-1.6107197","0.14229183","9.641888","sit up","1"
"69120543556877","3","-1.6083243","0.15187375","9.677821","sit up","1"
"69120563532502","3","-1.5987422","0.1470828","9.644284","sit up","1"
"69120583457658","3","-1.6131152","0.15187375","9.653866","sit up","1"
"69120603342970","3","-1.6131152","0.14947827","9.668239","sit up","1"
"69120623268127","3","-1.6131152","0.14947827","9.658657","sit up","1"
"69120643203700","3","-1.6155107","0.12312801","9.665843","sit up","1"
"69120663128856","3","-1.5915558","0.13270992","9.663447","sit up","1"
"69120683054012","3","-1.5915558","0.14468732","9.67303","sit up","1"
"69120702979168","3","-1.5963469","0.13750088","9.639493","sit up","1"
"69120722905939","3","-1.6011379","0.14229183","9.620329","sit up","1"
"69120742831095","3","-1.6298835","0.11115062","9.649075","sit up","1"
"69120762781877","3","-1.63707","0.11833705","9.728126","sit up","1"
"69120782707033","3","-1.6131152","0.12312801","9.677821","sit up","1"
"69120802585470","3","-1.5532281","0.16145566","9.685007","sit up","1"
"69120822510679","3","-1.5580192","0.16624661","9.675425","sit up","1"
"69120842454897","3","-1.5939513","0.10875514","9.622725","sit up","1"
"69120862380054","3","-1.6083243","0.089591295","9.60356","sit up","1"
"69120882298231","3","-1.6562338","0.1806195","9.730521","sit up","1"
"69120902223387","3","-1.641861","0.2237381","9.754476","sit up","1"
"69120922153439","3","-1.5268779","0.18780592","9.6562605","sit up","1"
"69120942078595","3","-1.5268779","0.17103758","9.615538","sit up","1"
"69120962029585","3","-1.6083243","0.18541045","9.605956","sit up","1"
"69120981954741","3","-1.6466519","0.17103758","9.608352","sit up","1"
"69121001868075","3","-1.5652056","0.18780592","9.668239","sit up","1"
"69121021793231","3","-1.507714","0.23811097","9.689797","sit up","1"
"69121041699116","3","-1.5268779","0.20936523","9.661052","sit up","1"
"69121061624168","3","-1.5747875","0.17103758","9.634702","sit up","1"
"69121081538856","3","-1.5795784","0.18780592","9.696984","sit up","1"
"69121101463908","3","-1.5364599","0.21894714","9.65147","sit up","1"
"69121121420262","3","-1.4981322","0.20936523","9.507742","sit up","1"
"69121141345262","3","-1.5556237","0.18301497","9.512533","sit up","1"
"69121161259533","3","-1.6322789","0.17582853","9.716147","sit up","1"
"69121181184585","3","-1.6226971","0.19738784","9.754476","sit up","1"
"69121201122397","3","-1.5915558","0.19738784","9.711357","sit up","1"
"69121221047450","3","-1.5340643","0.19738784","9.644284","sit up","1"
"69121240970627","3","-1.5268779","0.16624661","9.613143","sit up","1"
"69121260895679","3","-1.5340643","0.14468732","9.661052","sit up","1"
"69121280815418","3","-1.5963469","0.19738784","9.7089615","sit up","1"
"69121300740470","3","-1.6346745","0.19738784","9.694589","sit up","1"
"69121320646512","3","-1.6586292","0.2021788","9.723335","sit up","1"
"69121340571512","3","-1.6706066","0.19738784","9.780826","sit up","1"
"69121360502762","3","-1.6538383","0.15666471","9.831131","sit up","1"
"69121380427762","3","-1.5843694","0.1806195","9.819154","sit up","1"
"69121400378439","3","-1.6179061","0.17822403","9.74729","sit up","1"
"69121420303491","3","-1.6658156","0.14468732","9.526905","sit up","1"
"69121440222345","3","-1.6993524","0.20457427","9.4909725","sit up","1"
"69121460147345","3","-1.6203016","0.293207","9.567629","sit up","1"
"69121480055835","3","-1.5196915","0.25008836","9.627516","sit up","1"
"69121499980835","3","-1.4813639","0.2596703","9.711357","sit up","1"
"69121519907085","3","-1.4166859","0.2692522","9.675425","sit up","1"
"69121539832137","3","-1.4406407","0.19020142","9.67303","sit up","1"
"69121559758908","3","-1.5196915","0.10875514","9.658657","sit up","1"
"69121579705366","3","-1.5412508","0.09677774","9.696984","sit up","1"
"69121599630366","3","-1.5292735","0.10875514","9.82634","sit up","1"
"69121619532189","3","-1.5149006","0.19978333","9.819154","sit up","1"
"69121639457241","3","-1.5412508","0.24290194","9.663447","sit up","1"
"69121659378595","3","-1.5436463","0.4345402","9.558047","sit up","1"
