"Timestamp","Accuracy","Acceleration X","Acceleration Y","Acceleration Z","Label","Cycle"
"326936243258928","3","-0.3602799","1.0382009","9.071765","none","0"
"326936263193459","3","-0.14708233","1.1819295","9.241844","none","0"
"326936283106896","3","-0.111150086","1.3208672","10.156916","none","0"
"326936303019657","3","-0.11833656","1.2082798","9.59877","none","0"
"326936322933094","3","-0.13031399","1.2705623","9.579606","none","0"
"326936342797938","3","-0.13510495","1.2442119","9.759267","none","0"
"326936362711376","3","-0.12791848","1.2274436","9.620329","none","0"
"326936382639865","3","-0.12791848","1.2513983","9.7353115","none","0"
"326936402553355","3","-0.1135456","1.2513983","9.65147","none","0"
"326936422470855","3","-0.12791848","1.2418165","9.675425","none","0"
"326936442384344","3","-0.13510495","1.2490029","9.716147","none","0"
"326936462291167","3","-0.12312758","1.2490029","9.668239","none","0"
"326936482204605","3","-0.12312758","1.2466074","9.69938","none","0"
"326936502108459","3","-0.13270944","1.2466074","9.692194","none","0"
"326936522021896","3","-0.12312758","1.2370255","9.682611","none","0"
"326936541927938","3","-0.1375004","1.2346301","9.689797","none","0"
"326936561841376","3","-0.12552297","1.2513983","9.689797","none","0"
"326936581748511","3","-0.111150086","1.2561893","9.69938","none","0"
"326936601661948","3","-0.11833656","1.2346301","9.644284","none","0"
"326936621534084","3","-0.1135456","1.2370255","9.675425","none","0"
"326936641447573","3","-0.12073207","1.2537938","9.696984","none","0"
"326936661387834","3","-0.1375004","1.2490029","9.704171","none","0"
"326936681301323","3","-0.1375004","1.2561893","9.694589","none","0"
"326936701188407","3","-0.12552297","1.2466074","9.69938","none","0"
"326936721101896","3","-0.12791848","1.2442119","9.696984","none","0"
"326936741036844","3","-0.12552297","1.2490029","9.711357","none","0"
"326936760950230","3","-0.111150086","1.2490029","9.67303","none","0"
"326936780859396","3","-0.10396367","1.2370255","9.69938","none","0"
"326936800772834","3","-0.13031399","1.2418165","9.685007","none","0"
"326936820666115","3","-0.12312758","1.2537938","9.67303","none","0"
"326936840579553","3","-0.12791848","1.2490029","9.696984","none","0"
"326936860492209","3","-0.13510495","1.2418165","9.713753","none","0"
"326936880405646","3","-0.1135456","1.2346301","9.701775","none","0"
"326936900323042","3","-0.12073207","1.2442119","9.677821","none","0"
"326936920236532","3","-0.12312758","1.2442119","9.701775","none","0"
"326936940134188","3","-0.13270944","1.239421","9.689797","none","0"
"326936960047626","3","-0.13031399","1.2370255","9.689797","none","0"
"326936979945594","3","-0.13270944","1.2418165","9.67303","none","0"
"326936999859084","3","-0.13510495","1.2442119","9.685007","none","0"
"326937019779240","3","-0.12552297","1.2442119","9.69938","none","0"
"326937039692678","3","-0.12312758","1.2585849","9.696984","none","0"
"326937059603355","3","-0.12552297","1.2490029","9.689797","none","0"
"326937079516792","3","-0.13270944","1.2418165","9.694589","none","0"
"326937099439448","3","-0.12073207","1.2322346","9.682611","none","0"
"326937119352886","3","-0.108754694","1.2537938","9.687403","none","0"
"326937139267834","3","-0.12073207","1.2442119","9.687403","none","0"
"326937159181271","3","-0.12552297","1.2370255","9.682611","none","0"
"326937179083303","3","-0.11833656","1.2370255","9.67303","none","0"
"326937198996792","3","-0.1135456","1.2466074","9.661052","none","0"
"326937218895282","3","-0.12073207","1.2442119","9.677821","none","0"
"326937238808719","3","-0.11594111","1.2442119","9.696984","none","0"
"326937258700386","3","-0.12073207","1.2418165","9.675425","none","0"
"326937278613251","3","-0.13510495","1.239421","9.682611","none","0"
"326937298559605","3","-0.12791848","1.2322346","9.687403","none","0"
"326937318472365","3","-0.12073207","1.2466074","9.675425","none","0"
"326937338368198","3","-0.12312758","1.2513983","9.696984","none","0"
"326937358288667","3","-0.12552297","1.2490029","9.711357","none","0"
"326937378179813","3","-0.1135456","1.239421","9.694589","none","0"
"326937398092573","3","-0.111150086","1.2466074","9.696984","none","0"
"326937418042573","3","-0.12073207","1.2513983","9.682611","none","0"
"326937437955386","3","-0.12073207","1.2442119","9.69938","none","0"
"326937457857001","3","-0.12552297","1.2490029","9.675425","none","0"
"326937477769813","3","-0.11594111","1.239421","9.680216","none","0"
"326937497701219","3","-0.11594111","1.2513983","9.694589","none","0"
"326937517614032","3","-0.11833656","1.239421","9.720939","none","0"
"326937537534605","3","-0.12791848","1.2466074","9.692194","none","0"
"326937557447417","3","-0.12791848","1.2513983","9.682611","none","0"
"326937577348928","3","-0.11833656","1.2418165","9.701775","none","0"
"326937597261740","3","-0.11833656","1.2609802","9.720939","none","0"
"326937617197678","3","-0.12312758","1.239421","9.69938","none","0"
"326937637110490","3","-0.11833656","1.239421","9.685007","none","0"
"326937657019292","3","-0.12791848","1.2370255","9.680216","none","0"
"326937676932053","3","-0.13031399","1.2274436","9.665843","none","0"
"326937696831792","3","-0.11833656","1.2274436","9.668239","none","0"
"326937716744605","3","-0.13270944","1.2418165","9.670634","none","0"
"326937736685907","3","-0.13270944","1.2466074","9.696984","none","0"
"326937756598719","3","-0.12552297","1.2513983","9.687403","none","0"
"326937776521115","3","-0.12312758","1.2466074","9.694589","none","0"
"326937796433928","3","-0.12073207","1.2513983","9.706566","none","0"
"326937816320178","3","-0.1135456","1.239421","9.670634","none","0"
"326937836232990","3","-0.11594111","1.2298391","9.694589","none","0"
"326937856171219","3","-0.14229137","1.239421","9.69938","none","0"
"326937876083980","3","-0.13510495","1.2442119","9.665843","none","0"
"326937896008928","3","-0.1135456","1.2585849","9.713753","none","0"
"326937915921740","3","-0.111150086","1.2585849","9.682611","none","0"
"326937935804136","3","-0.11833656","1.2466074","9.668239","none","0"
"326937955716948","3","-0.12791848","1.2466074","9.687403","none","0"
"326937975649657","3","-0.111150086","1.2585849","9.689797","none","0"
"326937995562469","3","-0.10156822","1.2418165","9.713753","none","0"
"326938015466532","3","-0.13510495","1.239421","9.72573","none","0"
"326938035379292","3","-0.12791848","1.2490029","9.694589","none","0"
"326938055319032","3","-0.12073207","1.2466074","9.685007","none","0"
"326938075231792","3","-0.111150086","1.239421","9.694589","none","0"
"326938095122573","3","-0.111150086","1.2490029","9.694589","none","0"
"326938115035386","3","-0.1135456","1.2705623","9.696984","none","0"
"326938134948928","3","-0.1135456","1.2681668","9.704171","none","0"
"326938154861792","3","-0.12312758","1.2418165","9.7089615","none","0"
"326938174805178","3","-0.106359184","1.2370255","9.668239","none","0"
"326938194717938","3","-0.12073207","1.2346301","9.69938","none","0"
"326938214602626","3","-0.13989586","1.239421","9.641888","none","0"
"326938234515490","3","-0.12073207","1.1986979","9.701775","none","0"
"326938254455907","3","-0.11833656","1.2442119","9.687403","none","0"
"326938274368667","3","-0.11833656","1.2657713","9.675425","none","0"
"326938294247521","3","-0.11594111","1.2729577","9.732917","none","0"
"326938314160334","3","-0.111150086","1.2490029","9.730521","none","0"
"326938334109136","3","-0.10156822","1.2633758","9.706566","none","0"
"326938354021948","3","-0.1375004","1.2657713","9.689797","none","0"
"326938373932626","3","-0.11833656","1.2322346","9.706566","none","0"
"326938393845751","3","-0.12312758","1.2130708","9.696984","none","0"
"326938413764501","3","-0.1135456","1.2250481","9.641888","none","0"
"326938433677678","3","-0.12073207","1.239421","9.658657","none","0"
"326938453594761","3","-0.1135456","1.2513983","9.661052","none","0"
"326938473507938","3","-0.12791848","1.2633758","9.677821","none","0"
"326938493424136","3","-0.12791848","1.2633758","9.692194","none","0"
"326938513337313","3","-0.11594111","1.2561893","9.7353115","none","0"
"326938533227365","3","-0.1135456","1.2537938","9.713753","none","0"
"326938553140490","3","-0.12312758","1.2466074","9.665843","none","0"
"326938573061584","3","-0.1135456","1.2370255","9.687403","none","0"
"326938592974761","3","-0.13270944","1.2418165","9.682611","none","0"
"326938612911376","3","-0.13031399","1.2322346","9.668239","none","0"
"326938632824501","3","-0.11833656","1.239421","9.685007","none","0"
"326938652722001","3","-0.12073207","1.2657713","9.69938","none","0"
"326938672635126","3","-0.12312758","1.2585849","9.692194","none","0"
"326938692553511","3","-0.09917271","1.2513983","9.704171","none","0"
"326938712466636","3","-0.108754694","1.2490029","9.694589","none","0"
"326938732403980","3","-0.12552297","1.2442119","9.692194","none","0"
"326938752317105","3","-0.13031399","1.2298391","9.685007","none","0"
"326938772221896","3","-0.11594111","1.2418165","9.670634","none","0"
"326938792135073","3","-0.11594111","1.2561893","9.680216","none","0"
"326938812039605","3","-0.12552297","1.2609802","9.701775","none","0"
"326938831952730","3","-0.10396367","1.2537938","9.653866","none","0"
"326938851819657","3","-0.108754694","1.239421","9.687403","none","0"
"326938871732782","3","-0.12073207","1.2490029","9.689797","none","0"
"326938891724344","3","-0.12791848","1.2466074","9.689797","none","0"
"326938911637417","3","-0.13031399","1.2513983","9.682611","none","0"
"326938931526636","3","-0.11833656","1.2537938","9.644284","none","0"
"326938951439761","3","-0.12073207","1.2298391","9.680216","none","0"
"326938971367521","3","-0.11833656","1.2418165","9.687403","none","0"
"326938991280646","3","-0.12312758","1.2370255","9.682611","none","0"
"326939011178146","3","-0.11833656","1.2585849","9.665843","none","0"
"326939031091271","3","-0.12552297","1.2657713","9.711357","none","0"
"326939051002990","3","-0.12791848","1.2490029","9.704171","none","0"
"326939070916167","3","-0.106359184","1.2418165","9.677821","none","0"
"326939090840282","3","-0.11833656","1.239421","9.694589","none","0"
"326939110753459","3","-0.11833656","1.239421","9.694589","none","0"
"326939130693511","3","-0.12073207","1.2370255","9.694589","none","0"
"326939150606688","3","-0.12791848","1.2490029","9.680216","none","0"
"326939170502678","3","-0.12073207","1.2442119","9.689797","none","0"
"326939190415803","3","-0.11594111","1.2466074","9.689797","none","0"
"326939210330178","3","-0.108754694","1.2466074","9.718544","none","0"
"326939230243303","3","-0.11594111","1.2466074","9.711357","none","0"
"326939250156844","3","-0.106359184","1.2442119","9.677821","none","0"
"326939270069969","3","-0.10156822","1.2346301","9.668239","none","0"
"326939289984501","3","-0.11833656","1.2370255","9.69938","none","0"
"326939309897678","3","-0.13270944","1.2609802","9.706566","none","0"
"326939329827313","3","-0.11594111","1.2561893","9.637098","none","0"
"326939349740490","3","-0.108754694","1.2082798","9.694589","none","0"
"326939369660959","3","-0.108754694","1.2322346","9.728126","none","0"
"326939389574084","3","-0.11833656","1.2681668","9.687403","none","0"
"326939409433928","3","-0.12312758","1.2466074","9.653866","none","0"
"326939429347157","3","-0.12791848","1.2609802","9.723335","none","0"
"326939449328563","3","-0.11594111","1.2609802","9.69938","none","0"
"326939469241740","3","-0.12073207","1.2250481","9.67303","none","0"
"326939489136323","3","-0.09917271","1.2226527","9.696984","none","0"
"326939509049501","3","-0.11833656","1.2442119","9.696984","none","0"
"326939528964761","3","-0.13989586","1.2490029","9.680216","none","0"
"326939548877990","3","-0.13989586","1.2585849","9.716147","none","0"
"326939568797157","3","-0.1135456","1.2274436","9.69938","none","0"
"326939588710386","3","-0.0919863","1.2466074","9.653866","none","0"
"326939608644032","3","-0.11833656","1.2466074","9.670634","none","0"
"326939628557313","3","-0.106359184","1.2490029","9.706566","none","0"
"326939648485803","3","-0.1375004","1.2490029","9.677821","none","0"
"326939668399032","3","-0.13510495","1.239421","9.682611","none","0"
"326939688272105","3","-0.11833656","1.2466074","9.7089615","none","0"
"326939708185334","3","-0.11833656","1.2466074","9.704171","none","0"
"326939728110907","3","-0.108754694","1.2633758","9.675425","none","0"
"326939748024084","3","-0.108754694","1.2466074","9.687403","none","0"
"326939767972782","3","-0.11833656","1.2370255","9.72573","none","0"
"326939787886011","3","-0.11594111","1.2418165","9.7089615","none","0"
"326939807802730","3","-0.1135456","1.2466074","9.682611","none","0"
"326939827715959","3","-0.106359184","1.2370255","9.680216","none","0"
"326939847628980","3","-0.12073207","1.2370255","9.65147","none","0"
"326939867542209","3","-0.13510495","1.239421","9.677821","none","0"
"326939887418928","3","-0.13031399","1.2442119","9.689797","none","0"
"326939907332157","3","-0.12791848","1.2585849","9.720939","none","0"
"326939927285594","3","-0.12073207","1.2585849","9.677821","none","0"
"326939947198823","3","-0.108754694","1.2490029","9.704171","none","0"
"326939967096480","3","-0.111150086","1.239421","9.694589","none","0"
"326939987009761","3","-0.13031399","1.2370255","9.694589","none","0"
"326940006950334","3","-0.12312758","1.2418165","9.694589","none","0"
"326940026863511","3","-0.1135456","1.239421","9.711357","none","0"
"326940046744553","3","-0.108754694","1.2585849","9.677821","none","0"
"326940066657730","3","-0.111150086","1.239421","9.65147","none","0"
"326940086573928","3","-0.111150086","1.2274436","9.7089615","none","0"
"326940106487105","3","-0.111150086","1.2490029","9.69938","none","0"
"326940126429188","3","-0.11833656","1.2633758","9.687403","none","0"
"326940146342365","3","-0.12552297","1.2442119","9.682611","none","0"
"326940166227938","3","-0.1135456","1.2298391","9.716147","none","0"
"326940186141167","3","-0.12073207","1.2442119","9.692194","none","0"
"326940206053407","3","-0.1135456","1.2226527","9.65147","none","0"
"326940225966584","3","-0.1135456","1.239421","9.692194","sit down","0"
"326940245889553","3","-0.11833656","1.2585849","9.685007","sit down","0"
"326940265802782","3","-0.12552297","1.2537938","9.682611","sit down","0"
"326940285733042","3","-0.10396367","1.2298391","9.704171","sit down","0"
"326940305646219","3","-0.111150086","1.2418165","9.711357","sit down","0"
"326940325539813","3","-0.11594111","1.2442119","9.677821","sit down","0"
"326940345452990","3","-0.1135456","1.2490029","9.677821","sit down","0"
"326940365380490","3","-0.12073207","1.2466074","9.692194","sit down","0"
"326940385293719","3","-0.12791848","1.2513983","9.682611","sit down","0"
"326940405229240","3","-0.108754694","1.2513983","9.687403","sit down","0"
"326940425142417","3","-0.106359184","1.2609802","9.687403","sit down","0"
"326940445046480","3","-0.12552297","1.2490029","9.668239","sit down","0"
"326940464960230","3","-0.13510495","1.2298391","9.689797","sit down","0"
"326940484848042","3","-0.13270944","1.2418165","9.701775","sit down","0"
"326940504761740","3","-0.1375004","1.2490029","9.670634","sit down","0"
"326940524663876","3","-0.1135456","1.2418165","9.665843","sit down","0"
"326940544577573","3","-0.084799886","1.2490029","9.692194","sit down","0"
"326940564540386","3","-0.1135456","1.2418165","9.687403","sit down","0"
"326940584454084","3","-0.11594111","1.2561893","9.692194","sit down","0"
"326940604333823","3","-0.111150086","1.2418165","9.687403","sit down","0"
"326940624247521","3","-0.12073207","1.2322346","9.692194","sit down","0"
"326940644160438","3","-0.111150086","1.239421","9.696984","sit down","0"
"326940664074188","3","-0.11833656","1.2466074","9.665843","sit down","0"
"326940684010698","3","-0.13270944","1.239421","9.685007","sit down","0"
"326940703924396","3","-0.11594111","1.2561893","9.706566","sit down","0"
"326940723813303","3","-0.10396367","1.2513983","9.685007","sit down","0"
"326940743727001","3","-0.13031399","1.2298391","9.682611","sit down","0"
"326940763655907","3","-0.12073207","1.239421","9.692194","sit down","0"
"326940783569657","3","-0.1135456","1.2585849","9.69938","sit down","0"
"326940803471063","3","-0.10396367","1.2490029","9.687403","sit down","0"
"326940823384813","3","-0.1135456","1.2298391","9.704171","sit down","0"
"326940843325855","3","-0.1135456","1.239421","9.696984","sit down","0"
"326940863239553","3","-0.12791848","1.2513983","9.670634","sit down","0"
"326940883119032","3","-0.11833656","1.2370255","9.692194","sit down","0"
"326940903032730","3","-0.106359184","1.239421","9.67303","sit down","0"
"326940922945073","3","-0.111150086","1.2537938","9.661052","sit down","0"
"326940942858771","3","-0.12552297","1.2585849","9.6562605","sit down","0"
"326940962766844","3","-0.11833656","1.2346301","9.694589","sit down","0"
"326940982680594","3","-0.10396367","1.2609802","9.668239","sit down","0"
"326941002595698","3","-0.11833656","1.2490029","9.677821","sit down","0"
"326941022509344","3","-0.11833656","1.2418165","9.687403","sit down","0"
"326941042449136","3","-0.11833656","1.2466074","9.692194","sit down","0"
"326941062362886","3","-0.10156822","1.2466074","9.680216","sit down","0"
"326941082239969","3","-0.12073207","1.239421","9.658657","sit down","0"
"326941102153667","3","-0.11594111","1.2466074","9.701775","sit down","0"
"326941122092938","3","-0.12312758","1.2657713","9.685007","sit down","0"
"326941142006636","3","-0.13031399","1.2585849","9.67303","sit down","0"
"326941161920698","3","-0.12073207","1.2370255","9.675425","sit down","0"
"326941181834396","3","-0.1135456","1.2490029","9.694589","sit down","0"
"326941201737417","3","-0.108754694","1.2442119","9.692194","sit down","0"
"326941221651115","3","-0.13031399","1.2490029","9.682611","sit down","0"
"326941241559865","3","-0.15905976","1.2298391","9.696984","sit down","0"
"326941261473563","3","-0.15905976","1.1963024","9.692194","sit down","0"
"326941281371532","3","0.032578588","1.3591949","9.605956","sit down","0"
"326941301285230","3","-0.25248337","1.1436019","9.859877","sit down","0"
"326941321183198","3","-0.111150086","1.2537938","9.481391","sit down","0"
"326941341096896","3","-0.21655118","1.2202572","9.883832","sit down","0"
"326941361003355","3","-0.01533097","1.2466074","9.4766","sit down","0"
"326941380917001","3","-0.01533097","1.349613","9.835922","sit down","0"
"326941400865698","3","-0.19738734","1.1531837","9.615538","sit down","0"
"326941420779448","3","-0.19978285","1.2298391","9.653866","sit down","0"
"326941440657313","3","-0.051263154","1.2609802","9.685007","sit down","0"
"326941460571011","3","-0.13510495","1.2633758","9.737708","sit down","0"
"326941480510126","3","-0.12312758","1.2873305","9.69938","sit down","0"
"326941500423615","3","-0.13031399","1.2154663","9.682611","sit down","0"
"326941520314292","3","-0.10156822","1.2106752","9.737708","sit down","0"
"326941540227782","3","-0.108754694","1.299308","9.62512","sit down","0"
"326941560124136","3","-0.13270944","1.2418165","9.668239","sit down","0"
"326941580037678","3","-0.13510495","1.2442119","9.730521","sit down","0"
"326941599954136","3","-0.10396367","1.2154663","9.696984","sit down","0"
"326941619867678","3","-0.080008924","1.2729577","9.67303","sit down","0"
"326941639773719","3","-0.11594111","1.2561893","9.716147","sit down","0"
"326941659687209","3","-0.12552297","1.2178617","9.692194","sit down","0"
"326941679602261","3","-0.10156822","1.2418165","9.687403","sit down","0"
"326941699515803","3","-0.09677726","1.2322346","9.696984","sit down","0"
"326941719430751","3","-0.11833656","1.2370255","9.685007","sit down","0"
"326941739344240","3","-0.11833656","1.2466074","9.677821","sit down","0"
"326941759254084","3","-0.108754694","1.2466074","9.663447","sit down","0"
"326941779167626","3","-0.108754694","1.2106752","9.696984","sit down","0"
"326941799118615","3","-0.11833656","1.2130708","9.761662","sit down","0"
"326941819032105","3","-0.1135456","1.2274436","9.704171","sit down","0"
"326941838930438","3","-0.12312758","1.2298391","9.706566","sit down","0"
"326941858843928","3","-0.10396367","1.2154663","9.72573","sit down","0"
"326941878741532","3","-0.080008924","1.1986979","9.711357","sit down","0"
"326941898655073","3","-0.09917271","1.2034888","9.742498","sit down","0"
"326941918562521","3","-0.07282251","1.2130708","9.713753","sit down","0"
"326941938476011","3","-0.06324053","1.2226527","9.740103","sit down","0"
"326941958413980","3","-0.051263154","1.1555792","9.706566","sit down","0"
"326941978327469","3","-0.051263154","1.1220425","9.730521","sit down","0"
"326941998250959","3","-0.106359184","1.1603702","9.811967","sit down","0"
"326942018164448","3","-0.13989586","1.2322346","9.732917","sit down","0"
"326942038041271","3","-0.13510495","1.294517","9.62991","sit down","0"
"326942057954813","3","-0.07282251","1.3136808","9.608352","sit down","0"
"326942077900490","3","-0.03928578","1.3064944","9.627516","sit down","0"
"326942097813980","3","-0.084799886","1.4478276","9.582001","sit down","0"
"326942117708094","3","-0.11833656","1.4885507","9.57242","sit down","0"
"326942137621584","3","-0.07521796","1.4478276","9.586792","sit down","0"
"326942157516115","3","-0.07282251","1.524483","9.591583","sit down","0"
"326942177429605","3","-0.108754694","1.6538388","9.574815","sit down","0"
"326942197322313","3","-0.0919863","1.5963472","9.582001","sit down","0"
"326942217264292","3","-0.058449626","1.3831497","9.627516","sit down","0"
"326942237177834","3","-0.084799886","1.304099","9.720939","sit down","0"
"326942257083667","3","-0.09677726","1.3352401","9.737708","sit down","0"
"326942276997157","3","-0.07282251","1.3017035","9.706566","sit down","0"
"326942296923771","3","-0.036890328","1.2010933","9.687403","sit down","0"
"326942316837313","3","-0.032099366","1.2825396","9.6562605","sit down","0"
"326942336712626","3","-0.03928578","1.3999181","9.723335","sit down","0"
"326942356626115","3","-0.036890328","1.395127","9.67303","sit down","0"
"326942376550542","3","-0.048867702","1.3567994","9.605956","sit down","0"
"326942396464084","3","-0.029703856","1.3711723","9.641888","sit down","0"
"326942416401115","3","-0.051263154","1.3735678","9.685007","sit down","0"
"326942436314657","3","-0.060845137","1.354404","9.663447","sit down","0"
"326942456227417","3","-0.020121932","1.3591949","9.632307","sit down","0"
"326942476140907","3","-0.020121932","1.3759633","9.685007","sit down","0"
"326942496056063","3","-0.07282251","1.3328447","9.701775","sit down","0"
"326942515969553","3","-0.07521796","1.3520085","9.65147","sit down","0"
"326942535848511","3","-0.051263154","1.3567994","9.670634","sit down","0"
"326942555762053","3","-0.06563604","1.3328447","9.67303","sit down","0"
"326942575710386","3","-0.070427","1.3184718","9.69938","sit down","0"
"326942595623876","3","-0.070427","1.3711723","9.694589","sit down","0"
"326942615469188","3","-0.06803155","1.3639858","9.680216","sit down","0"
"326942635382730","3","-0.048867702","1.344822","9.692194","sit down","0"
"326942655356323","3","-0.04407674","1.3352401","9.668239","sit down","0"
"326942675269813","3","-0.056054115","1.344822","9.661052","sit down","0"
"326942695154865","3","-0.053658664","1.3400311","9.694589","sit down","0"
"326942715068407","3","-0.058449626","1.3615904","9.692194","sit down","0"
"326942734981480","3","-0.07521796","1.3663813","9.694589","sit down","0"
"326942754895021","3","-0.060845137","1.3567994","9.646679","sit down","0"
"326942774822417","3","-0.056054115","1.3663813","9.661052","sit down","0"
"326942794735959","3","-0.048867702","1.3663813","9.704171","sit down","0"
"326942814617990","3","-0.03928578","1.3591949","9.67303","sit down","0"
"326942834531480","3","-0.056054115","1.349613","9.670634","sit down","0"
"326942854483667","3","-0.04647225","1.3472176","9.661052","sit down","0"
"326942874397209","3","-0.056054115","1.3472176","9.682611","sit down","0"
"326942894281688","3","-0.04407674","1.3472176","9.680216","sit down","0"
"326942914195178","3","-0.051263154","1.3567994","9.653866","sit down","0"
"326942934125438","3","-0.029703856","1.3424265","9.649075","sit down","0"
"326942954038928","3","-0.036890328","1.3591949","9.653866","sit down","0"
"326942973927990","3","-0.027308345","1.349613","9.689797","sit down","0"
"326942993841480","3","-0.048867702","1.344822","9.689797","sit down","0"
"326943013755959","3","-0.060845137","1.3591949","9.687403","sit down","0"
"326943033669501","3","-0.06563604","1.3711723","9.6562605","sit down","0"
"326943053609188","3","-0.06563604","1.3735678","9.668239","sit down","0"
"326943073522678","3","-0.048867702","1.349613","9.668239","sit down","0"
"326943093408511","3","-0.04407674","1.349613","9.668239","sit down","0"
"326943113321948","3","-0.058449626","1.349613","9.680216","sit down","0"
"326943133258667","3","-0.060845137","1.354404","9.653866","sit down","0"
"326943153172157","3","-0.060845137","1.3520085","9.692194","sit down","0"
"326943173055855","3","-0.048867702","1.344822","9.687403","sit down","0"
"326943192969344","3","-0.058449626","1.3424265","9.670634","sit down","0"
"326943212925178","3","-0.04168123","1.3615904","9.680216","sit down","0"
"326943232838667","3","-0.034494817","1.3663813","9.646679","sit down","0"
"326943252723355","3","-0.04407674","1.3376356","9.6562605","sit down","0"
"326943272636844","3","-0.056054115","1.3280537","9.685007","sit down","0"
"326943292553771","3","-0.06324053","1.3472176","9.670634","sit down","0"
"326943312467313","3","-0.051263154","1.344822","9.689797","sit down","0"
"326943332383042","3","-0.032099366","1.3472176","9.67303","sit down","0"
"326943352296532","3","-0.04647225","1.3472176","9.649075","sit down","0"
"326943372200855","3","-0.056054115","1.354404","9.665843","sit down","0"
"326943392114396","3","-0.06324053","1.354404","9.677821","sit down","0"
"326943412071688","3","-0.048867702","1.3591949","9.653866","sit down","0"
"326943431985126","3","-0.06563604","1.3472176","9.685007","sit down","0"
"326943451863615","3","-0.06324053","1.3520085","9.692194","sit down","0"
"326943471777157","3","-0.048867702","1.3400311","9.675425","sit down","0"
"326943491695490","3","-0.04407674","1.3520085","9.67303","sit down","0"
"326943511609032","3","-0.036890328","1.3687768","9.6562605","sit down","0"
"326943531524761","3","-0.058449626","1.344822","9.682611","sit down","0"
"326943551438303","3","-0.056054115","1.3472176","9.665843","sit down","0"
"326943571368303","3","-0.056054115","1.3352401","9.687403","sit down","0"
"326943591281844","3","-0.051263154","1.344822","9.665843","sit down","0"
"326943611183719","3","-0.051263154","1.3567994","9.677821","sit down","0"
"326943631097261","3","-0.053658664","1.349613","9.677821","sit down","0"
"326943651026844","3","-0.04647225","1.354404","9.65147","sit down","0"
"326943670940334","3","-0.058449626","1.3735678","9.668239","sit down","0"
"326943690870542","3","-0.056054115","1.3615904","9.696984","sit down","0"
"326943710784032","3","-0.04647225","1.3520085","9.6562605","sit down","0"
"326943730648719","3","-0.04647225","1.3520085","9.665843","sit down","0"
"326943750562209","3","-0.058449626","1.3567994","9.67303","sit down","0"
"326943770504657","3","-0.060845137","1.3400311","9.661052","sit down","0"
"326943790418198","3","-0.04407674","1.344822","9.675425","sit down","0"
"326943810324709","3","-0.04647225","1.3400311","9.641888","sit down","0"
"326943830238198","3","-0.048867702","1.3472176","9.668239","sit down","0"
"326943850147782","3","-0.03928578","1.3567994","9.685007","sit down","0"
"326943870061323","3","-0.06324053","1.3520085","9.646679","sit down","0"
"326943889972782","3","-0.06324053","1.3591949","9.665843","sit down","0"
"326943909886323","3","-0.048867702","1.349613","9.682611","sit down","0"
"326943929796740","3","-0.036890328","1.3591949","9.663447","sit down","0"
"326943949710282","3","-0.04168123","1.349613","9.641888","sit down","0"
"326943969612886","3","-0.04407674","1.3376356","9.663447","sit down","0"
"326943989526376","3","-0.036890328","1.354404","9.644284","sit down","0"
"326944009421740","3","-0.04407674","1.3591949","9.661052","sit down","0"
"326944029335282","3","-0.048867702","1.3520085","9.668239","sit down","0"
"326944049270386","3","-0.04407674","1.3687768","9.663447","sit down","0"
"326944069183876","3","-0.048867702","1.3520085","9.675425","sit down","0"
"326944089106219","3","-0.051263154","1.3615904","9.675425","sit down","0"
"326944109019709","3","-0.053658664","1.344822","9.67303","sit down","0"
"326944128928146","3","-0.056054115","1.3400311","9.685007","sit down","0"
"326944148841688","3","-0.04168123","1.354404","9.687403","sit down","0"
"326944168766584","3","-0.053658664","1.3424265","9.658657","sit down","0"
"326944188680126","3","-0.048867702","1.3520085","9.67303","sit down","0"
"326944208579657","3","-0.058449626","1.3567994","9.682611","sit down","0"
"326944228493146","3","-0.06324053","1.3639858","9.682611","lay down","0"
"326944248421011","3","-0.056054115","1.3424265","9.694589","lay down","0"
"326944268334448","3","-0.06324053","1.354404","9.6562605","lay down","0"
"326944288196948","3","-0.04407674","1.3639858","9.65147","lay down","0"
"326944308110490","3","-0.058449626","1.3376356","9.653866","lay down","0"
"326944328035334","3","-0.060845137","1.3520085","9.668239","lay down","0"
"326944347948823","3","-0.048867702","1.3520085","9.661052","lay down","0"
"326944367866636","3","-0.053658664","1.3400311","9.65147","lay down","0"
"326944387780126","3","-0.06563604","1.344822","9.680216","lay down","0"
"326944407689605","3","-0.051263154","1.3472176","9.6562605","lay down","0"
"326944427603042","3","-0.051263154","1.354404","9.658657","lay down","0"
"326944447515542","3","-0.04407674","1.3567994","9.658657","lay down","0"
"326944467428980","3","-0.04407674","1.3520085","9.687403","lay down","0"
"326944487340021","3","-0.06563604","1.3304492","9.677821","lay down","0"
"326944507253511","3","-0.056054115","1.3472176","9.694589","lay down","0"
"326944527190907","3","-0.051263154","1.354404","9.680216","lay down","0"
"326944547104396","3","-0.04647225","1.3328447","9.661052","lay down","0"
"326944566981271","3","-0.03928578","1.354404","9.661052","lay down","0"
"326944586894709","3","-0.04647225","1.3472176","9.701775","lay down","0"
"326944606820594","3","-0.06324053","1.344822","9.65147","lay down","0"
"326944626734084","3","-0.04168123","1.3615904","9.661052","lay down","0"
"326944646651219","3","-0.034494817","1.3615904","9.737708","lay down","0"
"326944666564709","3","-0.027308345","1.390336","9.692194","lay down","0"
"326944686477001","3","-0.03928578","1.390336","9.649075","lay down","0"
"326944706390438","3","-0.04168123","1.3567994","9.646679","lay down","0"
"326944726307573","3","-0.03928578","1.3567994","9.653866","lay down","0"
"326944746221063","3","-0.04168123","1.3520085","9.696984","lay down","0"
"326944766138094","3","-0.027308345","1.3232627","9.7089615","lay down","0"
"326944786051584","3","-0.029703856","1.2873305","9.730521","lay down","0"
"326944805997417","3","-0.020121932","1.2801441","9.7089615","lay down","0"
"326944825910907","3","0.015810192","1.289726","9.716147","lay down","0"
"326944845792261","3","0.025392115","1.2753532","9.716147","lay down","0"
"326944865705751","3","0.0014373064","1.3112854","9.680216","lay down","0"
"326944885620334","3","-0.036890328","1.3352401","9.632307","lay down","0"
"326944905533823","3","-0.08959085","1.3567994","9.65147","lay down","0"
"326944925448407","3","-0.13510495","1.4454321","9.718544","lay down","0"
"326944945361896","3","-0.080008924","1.4550141","9.644284","lay down","0"
"326944965290021","3","0.0349741","1.395127","9.596374","lay down","0"
"326944985203459","3","0.0062283278","1.4118955","9.57721","lay down","0"
"326945005102678","3","-0.0919863","1.5029236","9.615538","lay down","0"
"326945025016167","3","-0.053658664","1.4717823","9.620329","lay down","0"
"326945044929969","3","-0.029703856","1.4190818","9.567629","lay down","0"
"326945064843511","3","-0.04407674","1.3807542","9.639493","lay down","0"
"326945084795126","3","-0.029703856","1.3855451","9.723335","lay down","0"
"326945104708615","3","-0.024912953","1.3975226","9.682611","lay down","0"
"326945124581740","3","-0.020121932","1.390336","9.675425","lay down","0"
"326945144495282","3","-0.0081445575","1.3831497","9.661052","lay down","0"
"326945164431740","3","-9.5808506E-4","1.3520085","9.644284","lay down","0"
"326945184345230","3","-0.0057491064","1.3735678","9.689797","lay down","0"
"326945204264032","3","-0.01533097","1.4430366","9.632307","lay down","0"
"326945224177521","3","0.0014373064","1.4430366","9.687403","lay down","0"
"326945244105073","3","0.027787626","1.395127","9.749685","lay down","0"
"326945264018511","3","-0.022517443","1.3687768","9.716147","lay down","0"
"326945283938511","3","-0.12312758","1.4741778","9.574815","lay down","0"
"326945303852053","3","-0.15187329","1.780799","9.407132","lay down","0"
"326945323763928","3","-0.082404435","1.4286637","9.7880125","lay down","0"
"326945343677521","3","-0.0919863","1.0166415","9.991628","lay down","0"
"326945363558615","3","-0.11833656","1.2274436","9.419108","lay down","0"
"326945383472157","3","-0.16145515","1.404709","9.665843","lay down","0"
"326945403384136","3","-0.15426874","1.3783587","9.898205","lay down","0"
"326945423297730","3","-0.056054115","1.3879406","9.62991","lay down","0"
"326945443237938","3","0.003832817","1.3017035","9.615538","lay down","0"
"326945463151480","3","-0.032099366","1.3280537","9.615538","lay down","0"
"326945483048771","3","0.0349741","1.4238728","9.467019","lay down","0"
"326945502962313","3","0.04216051","1.3520085","9.72573","lay down","0"
"326945522911376","3","-0.053658664","1.2729577","9.764058","lay down","0"
"326945542824865","3","-0.08719534","1.2729577","9.608352","lay down","0"
"326945562718042","3","-0.09438181","1.3304492","9.7089615","lay down","0"
"326945582631636","3","-0.084799886","1.3783587","9.720939","lay down","0"
"326945602537521","3","-0.070427","1.304099","9.65147","lay down","0"
"326945622451115","3","-0.084799886","1.2298391","9.574815","lay down","0"
"326945642392469","3","-0.10156822","1.3232627","9.567629","lay down","0"
"326945662306011","3","-0.10396367","1.5268784","9.605956","lay down","0"
"326945682165490","3","-0.13270944","1.5172964","9.646679","lay down","0"
"326945702078980","3","-0.12312758","1.4118955","9.687403","lay down","0"
"326945722042886","3","-0.056054115","1.3783587","9.737708","lay down","0"
"326945741956428","3","0.039765","1.5053191","9.79999","lay down","0"
"326945761870959","3","0.008623779","1.9676465","9.670634","lay down","0"
"326945781784448","3","-0.07761341","2.1568892","9.407132","lay down","0"
"326945801672469","3","-0.13270944","1.6873754","9.435877","lay down","0"
"326945821586063","3","0.051742375","1.1627656","9.447855","lay down","0"
"326945841495021","3","0.1882847","1.0717375","9.608352","lay down","0"
"326945861408615","3","-0.06563604","1.4334548","9.864668","lay down","0"
"326945881330438","3","-0.19499189","1.6634207","9.627516","lay down","0"
"326945901244032","3","-0.084799886","1.5029236","9.459832","lay down","0"
"326945921176115","3","-0.1375004","1.3520085","9.488578","lay down","0"
"326945941089657","3","-0.11594111","1.4430366","9.443064","lay down","0"
"326945960990386","3","-0.032099366","1.625093","9.591583","lay down","0"
"326945980903928","3","-0.12312758","1.7472625","9.675425","lay down","0"
"326946000809709","3","-0.053658664","1.625093","9.172375","lay down","0"
"326946020723303","3","-0.19020092","1.8622453","9.2466345","lay down","0"
"326946040640334","3","-0.5734775","1.9412962","10.087447","lay down","0"
"326946060553928","3","-0.7938615","1.5843698","10.267108","lay down","0"
"326946080468563","3","-0.65731925","1.1771386","9.838318","lay down","0"
"326946100382105","3","-0.43693522","0.8345851","9.5436735","lay down","0"
"326946120296167","3","-0.3626754","0.743557","9.946114","lay down","0"
"326946140209709","3","-0.3626754","0.8345851","10.549775","lay down","0"
"326946160105542","3","-0.43693522","1.0885059","10.204825","lay down","0"
"326946180019084","3","-0.3602799","1.3160763","9.364013","lay down","0"
"326946199982469","3","-0.10156822","1.0669465","9.308917","lay down","0"
"326946219896011","3","-0.108754694","0.84416705","9.962883","lay down","0"
"326946239760751","3","-0.30757937","1.0477828","9.840713","lay down","0"
"326946259674292","3","-0.34111607","1.13402","9.536487","lay down","0"
"326946279606688","3","-0.34351155","1.1555792","9.4766","lay down","0"
"326946299520230","3","-0.3914211","1.1627656","9.555651","lay down","0"
"326946319437469","3","-0.36507085","1.1507883","9.663447","lay down","0"
"326946339351011","3","-0.43214428","1.2753532","9.620329","lay down","0"
"326946359268876","3","-0.4393307","1.3064944","9.675425","lay down","0"
"326946379182417","3","-0.4033985","1.2849351","9.649075","lay down","0"
"326946399125282","3","-0.43214428","1.2969124","9.574815","lay down","0"
"326946419038823","3","-0.43214428","1.3567994","9.694589","lay down","0"
"326946438937730","3","-0.41298044","1.3687768","9.689797","lay down","0"
"326946458851323","3","-0.4033985","1.3879406","9.661052","lay down","0"
"326946478785855","3","-0.43693522","1.4693869","9.685007","lay down","0"
"326946498699396","3","-0.48963574","1.4861552","9.67303","lay down","0"
"326946518564448","3","-0.48963574","1.4765733","9.713753","lay down","0"
"326946538477990","3","-0.4584945","1.390336","9.7353115","lay down","0"
"326946558441167","3","-0.42974877","1.3352401","9.778431","lay down","0"
"326946578354709","3","-0.44172618","1.3591949","9.795198","lay down","0"
"326946598250178","3","-0.42974877","1.3184718","9.862272","lay down","0"
"326946618163719","3","-0.48963574","1.2537938","9.879041","lay down","0"
"326946638091480","3","-0.6621102","1.2705623","9.634702","lay down","0"
"326946658005021","3","-0.58785033","1.3424265","9.483787","lay down","0"
"326946677907157","3","-0.3171613","1.4262683","9.328081","lay down","0"
"326946697820698","3","-0.15426874","1.6226976","9.354431","lay down","0"
"326946717683198","3","-0.16864163","1.5125054","9.455041","lay down","0"
"326946737596792","3","-0.32674322","1.2729577","9.514928","lay down","0"
"326946757559292","3","-0.29799744","1.2298391","9.608352","lay down","0"
"326946777472834","3","-0.27643815","1.3567994","9.687403","lay down","0"
"326946797319553","3","-0.45609906","1.3208672","9.62991","lay down","0"
"326946817233094","3","-0.56629103","1.2178617","9.7353115","lay down","0"
"326946837229292","3","-0.65731925","1.2801441","9.821548","lay down","0"
"326946857143042","3","-0.5950368","1.4142909","9.77364","lay down","0"
"326946877031636","3","-0.5734775","1.4238728","9.74729","lay down","0"
"326946896945386","3","-0.846562","1.4334548","9.785617","lay down","0"
"326946916861011","3","-0.7291836","1.395127","9.886227","lay down","0"
"326946936774761","3","-0.4824493","1.3136808","9.718544","lay down","0"
"326946956721063","3","-0.5183815","1.2681668","9.646679","lay down","0"
"326946976634813","3","-0.56629103","1.2777487","9.838318","lay down","0"
"326946996518407","3","-0.5950368","1.3160763","9.689797","lay down","0"
"326947016432209","3","-0.53275436","1.2633758","9.570024","lay down","0"
"326947036367990","3","-0.46328548","1.1939069","9.610746","lay down","0"
"326947056281792","3","-0.48963574","1.1436019","9.60356","lay down","0"
"326947076182521","3","-0.54712725","1.2106752","9.701775","lay down","0"
"326947096096323","3","-0.54712725","1.2753532","9.685007","lay down","0"
"326947115985230","3","-0.5567092","1.2729577","9.584397","lay down","0"
"326947135898980","3","-0.5519182","1.304099","9.644284","lay down","0"
"326947155810386","3","-0.55431366","1.304099","9.701775","lay down","0"
"326947175724188","3","-0.56868654","1.3472176","9.728126","lay down","0"
"326947195629501","3","-0.5734775","1.4262683","9.639493","lay down","0"
"326947215543251","3","-0.59743226","1.3927315","9.608352","lay down","0"
"326947235452834","3","-0.5854549","1.3807542","9.744894","lay down","0"
"326947255366584","3","-0.5591046","1.3424265","9.6562605","lay down","0"
"326947275277834","3","-0.49442673","1.289726","9.620329","lay down","0"
"326947295191584","3","-0.5183815","1.3088899","9.644284","lay down","0"
"326947315128928","3","-0.57826847","1.2849351","9.62512","lay down","0"
"326947335042678","3","-0.5279634","1.2418165","9.713753","lay down","0"
"326947354896636","3","-0.5183815","1.2322346","9.67303","lay down","0"
"326947374810386","3","-0.520777","1.2609802","9.644284","lay down","0"
"326947394737105","3","-0.54712725","1.3376356","9.593979","lay down","0"
"326947414650855","3","-0.58305943","1.304099","9.653866","lay down","0"
"326947434557365","3","-0.58305943","1.2921215","9.744894","lay down","0"
"326947454471115","3","-0.59024584","1.3352401","9.689797","lay down","0"
"326947474377521","3","-0.5854549","1.3520085","9.661052","lay down","0"
"326947494291271","3","-0.6022232","1.3520085","9.677821","lay down","0"
"326947514203459","3","-0.630969","1.3160763","9.7089615","lay down","0"
"326947534117209","3","-0.6381554","1.294517","9.74729","lay down","0"
"326947554006428","3","-0.6285735","1.3280537","9.737708","lay down","0"
"326947573920126","3","-0.6237825","1.3639858","9.687403","lay down","0"
"326947593871376","3","-0.61180514","1.390336","9.711357","lay down","0"
"326947613785126","3","-0.59264135","1.395127","9.665843","lay down","0"
"326947633688563","3","-0.57826847","1.3472176","9.634702","lay down","0"
"326947653602313","3","-0.5567092","1.3328447","9.639493","lay down","0"
"326947673499709","3","-0.5375453","1.3304492","9.622725","lay down","0"
"326947693413459","3","-0.5495227","1.3160763","9.632307","lay down","0"
"326947713324657","3","-0.56868654","1.294517","9.637098","lay down","0"
"326947733238407","3","-0.57587296","1.2921215","9.639493","lay down","0"
"326947753161896","3","-0.56868654","1.2921215","9.646679","lay down","0"
"326947773075646","3","-0.59024584","1.2873305","9.661052","lay down","0"
"326947792975907","3","-0.59982777","1.299308","9.694589","lay down","0"
"326947812889605","3","-0.58305943","1.2921215","9.694589","lay down","0"
"326947832797105","3","-0.59264135","1.299308","9.718544","lay down","0"
"326947852710855","3","-0.59264135","1.3112854","9.668239","lay down","0"
"326947872641740","3","-0.59982777","1.3376356","9.689797","lay down","0"
"326947892555073","3","-0.5950368","1.3472176","9.692194","lay down","0"
"326947912428459","3","-0.6046187","1.349613","9.668239","lay down","0"
"326947932341844","3","-0.58305943","1.3520085","9.65147","lay down","0"
"326947952290021","3","-0.5519182","1.3304492","9.644284","lay down","0"
"326947972203303","3","-0.5591046","1.3256582","9.668239","lay down","0"
"326947992129553","3","-0.5638956","1.3184718","9.65147","lay down","0"
"326948012042834","3","-0.54712725","1.3088899","9.663447","lay down","0"
"326948031921063","3","-0.5615001","1.3088899","9.677821","lay down","0"
"326948051834448","3","-0.5806639","1.3208672","9.67303","lay down","0"
"326948071751584","3","-0.58785033","1.3160763","9.696984","lay down","0"
"326948091664917","3","-0.5806639","1.3136808","9.689797","lay down","0"
"326948111549292","3","-0.5734775","1.304099","9.665843","lay down","0"
"326948131462678","3","-0.5806639","1.3017035","9.694589","lay down","0"
"326948151420178","3","-0.59024584","1.3208672","9.67303","lay down","0"
"326948171333511","3","-0.5854549","1.3424265","9.627516","lay down","0"
"326948191219396","3","-0.5806639","1.3208672","9.680216","lay down","0"
"326948211132730","3","-0.5806639","1.3208672","9.670634","lay down","0"
"326948231039292","3","-0.58785033","1.299308","9.689797","sit up","0"
"326948250952626","3","-0.58305943","1.294517","9.689797","sit up","0"
"326948270853928","3","-0.59743226","1.304099","9.704171","sit up","0"
"326948290767261","3","-0.5950368","1.3064944","9.692194","sit up","0"
"326948310677938","3","-0.59024584","1.3232627","9.67303","sit up","0"
"326948330591323","3","-0.571082","1.3208672","9.675425","sit up","0"
"326948350500751","3","-0.56868654","1.3208672","9.658657","sit up","0"
"326948370414136","3","-0.5567092","1.3304492","9.653866","sit up","0"
"326948390299657","3","-0.58305943","1.3208672","9.649075","sit up","0"
"326948410212990","3","-0.58305943","1.3280537","9.67303","sit up","0"
"326948430165021","3","-0.56629103","1.3280537","9.668239","sit up","0"
"326948450078303","3","-0.58785033","1.3304492","9.639493","sit up","0"
"326948469964448","3","-0.5806639","1.3304492","9.661052","sit up","0"
"326948489877834","3","-0.5734775","1.3208672","9.692194","sit up","0"
"326948509813823","3","-0.5854549","1.3112854","9.677821","sit up","0"
"326948529727157","3","-0.59024584","1.3088899","9.67303","sit up","0"
"326948549634032","3","-0.56868654","1.2969124","9.67303","sit up","0"
"326948569547365","3","-0.5734775","1.2849351","9.682611","sit up","0"
"326948589432157","3","-0.5734775","1.304099","9.646679","sit up","0"
"326948609345542","3","-0.57587296","1.3136808","9.632307","sit up","0"
"326948629290855","3","-0.5950368","1.3304492","9.658657","sit up","0"
"326948649204188","3","-0.6022232","1.3017035","9.668239","sit up","0"
"326948669070230","3","-0.5854549","1.2873305","9.675425","sit up","0"
"326948688983615","3","-0.58785033","1.3064944","9.632307","sit up","0"
"326948708936271","3","-0.61180514","1.304099","9.668239","sit up","0"
"326948728849605","3","-0.6285735","1.3064944","9.711357","sit up","0"
"326948748724501","3","-0.62138706","1.2777487","9.711357","sit up","0"
"326948768637886","3","-0.64294636","1.304099","9.79999","sit up","0"
"326948788548771","3","-0.630969","1.349613","9.7880125","sit up","0"
"326948808462105","3","-0.65492374","1.3711723","9.682611","sit up","0"
"326948828389865","3","-0.6477373","1.3520085","9.69938","sit up","0"
"326948848303251","3","-0.6046187","1.3472176","9.776035","sit up","0"
"326948868192261","3","-0.53275436","1.3280537","9.766453","sit up","0"
"326948888105646","3","-0.5303589","1.2777487","9.687403","sit up","0"
"326948908017834","3","-0.520777","1.2729577","9.62512","sit up","0"
"326948927931167","3","-0.48484477","1.3088899","9.682611","sit up","0"
"326948947828303","3","-0.46089","1.2873305","9.876645","sit up","0"
"326948967741688","3","-0.4584945","1.289726","9.924555","sit up","0"
"326948987670334","3","-0.42016685","1.3232627","9.641888","sit up","0"
"326949007583615","3","-0.3722573","1.3855451","9.5173235","sit up","0"
"326949027519240","3","-0.24290144","1.4382457","9.689797","sit up","0"
"326949047432573","3","-0.2500879","1.579579","9.646679","sit up","0"
"326949067317782","3","-0.3147658","1.6346749","9.462228","sit up","0"
"326949087231115","3","-0.2692517","1.5172964","9.440668","sit up","0"
"326949107141688","3","-0.2812291","1.5172964","9.582001","sit up","0"
"326949127055021","3","-0.24290144","1.6538388","9.584397","sit up","0"
"326949146981688","3","-0.15426874","1.6682116","9.553256","sit up","0"
"326949166895073","3","-0.16864163","1.7209122","9.591583","sit up","0"
"326949186785386","3","-0.19499189","1.6586297","9.570024","sit up","0"
"326949206698719","3","-0.14947778","1.5364603","9.720939","sit up","0"
"326949226631844","3","-0.15905976","1.5149009","9.713753","sit up","0"
"326949246545230","3","-0.14229137","1.4765733","9.57242","sit up","0"
"326949266470021","3","-0.14947778","1.4693869","9.682611","sit up","0"
"326949286383355","3","-0.13989586","1.4334548","9.706566","sit up","0"
"326949306289136","3","-0.11833656","1.3687768","9.610746","sit up","0"
"326949326202469","3","-0.13270944","1.3567994","9.627516","sit up","0"
"326949346095230","3","-0.1135456","1.3472176","9.658657","sit up","0"
"326949366008563","3","-0.09917271","1.3376356","9.680216","sit up","0"
"326949385932886","3","-0.10156822","1.3136808","9.586792","sit up","0"
"326949405846219","3","-0.084799886","1.3400311","9.615538","sit up","0"
"326949425685646","3","-0.0919863","1.3376356","9.723335","sit up","0"
"326949445599032","3","-0.108754694","1.3160763","9.687403","sit up","0"
"326949465579136","3","-0.12312758","1.344822","9.639493","sit up","0"
"326949485492469","3","-0.09917271","1.3520085","9.670634","sit up","0"
"326949505359292","3","-0.09917271","1.3208672","9.713753","sit up","0"
"326949525272626","3","-0.09438181","1.3160763","9.706566","sit up","0"
"326949545225126","3","-0.0919863","1.3136808","9.730521","sit up","0"
"326949565138407","3","-0.084799886","1.3304492","9.72573","sit up","0"
"326949585022782","3","-0.08959085","1.3687768","9.72573","sit up","0"
"326949604936115","3","-0.060845137","1.3424265","9.701775","sit up","0"
"326949624843563","3","-0.020121932","1.4430366","9.740103","sit up","0"
"326949644756896","3","-0.0033535957","1.5556241","9.605956","sit up","0"
"326949664693511","3","0.0014373064","1.4957372","9.589188","sit up","0"
"326949684606844","3","-0.048867702","1.4765733","9.685007","sit up","0"
"326949704485073","3","-0.06803155","1.6274885","9.541278","sit up","0"
"326949724398459","3","-0.04647225","1.6346749","9.28017","sit up","0"
"326949744321323","3","-0.053658664","1.5987427","9.471808","sit up","0"
"326949764234709","3","-0.12312758","1.5556241","9.632307","sit up","0"
"326949784122521","3","-0.034494817","1.4142909","9.72573","sit up","0"
"326949804035907","3","0.027787626","1.3879406","9.840713","sit up","0"
"326949823948980","3","-0.0033535957","1.3879406","9.704171","sit up","0"
"326949843862261","3","-0.09917271","1.3831497","9.620329","sit up","0"
"326949863793823","3","-0.15905976","1.3304492","9.665843","sit up","0"
"326949883707157","3","-0.080008924","1.3088899","9.711357","sit up","0"
"326949903592365","3","-0.027308345","1.3400311","9.744894","sit up","0"
"326949923505698","3","-0.029703856","1.3711723","9.677821","sit up","0"
"326949943418303","3","-0.027308345","1.299308","9.637098","sit up","0"
"326949963331636","3","0.058928847","1.3376356","9.663447","sit up","0"
"326949983244917","3","0.025392115","1.3520085","9.634702","sit up","0"
"326950003158303","3","0.018205702","1.3663813","9.610746","sit up","0"
"326950023099605","3","0.013414741","1.4166863","9.641888","sit up","0"
"326950043012678","3","-0.0081445575","1.4286637","9.692194","sit up","0"
"326950062895907","3","-0.017726481","1.3256582","9.649075","sit up","0"
"326950082808980","3","-0.010540068","1.2969124","9.649075","sit up","0"
"326950102716948","3","-0.027308345","1.349613","9.675425","sit up","0"
"326950122630073","3","-0.04647225","1.3376356","9.689797","sit up","0"
"326950142543251","3","-0.024912953","1.2801441","9.737708","sit up","0"
"326950162456323","3","-0.0033535957","1.3112854","9.704171","sit up","0"
"326950182365126","3","-0.0081445575","1.3927315","9.649075","sit up","0"
"326950202278198","3","0.0014373064","1.4502231","9.617934","sit up","0"
"326950222187626","3","0.0349741","1.4238728","9.637098","sit up","0"
"326950242100698","3","0.054137886","1.390336","9.689797","sit up","0"
"326950262014709","3","0.022996664","1.3591949","9.658657","sit up","0"
"326950281927834","3","0.0062283278","1.2921215","9.641888","sit up","0"
"326950301866480","3","-0.0033535957","1.2729577","9.689797","sit up","0"
"326950321779553","3","0.008623779","1.3017035","9.766453","sit up","0"
"326950341652261","3","0.04216051","1.3927315","9.668239","sit up","0"
"326950361565334","3","0.020601213","1.4238728","9.553256","sit up","0"
"326950381501948","3","0.018205702","1.3879406","9.586792","sit up","0"
"326950401415073","3","0.003832817","1.3663813","9.69938","sit up","0"
"326950421296948","3","-0.01293546","1.3256582","9.706566","sit up","0"
"326950441210021","3","-0.01293546","1.3017035","9.675425","sit up","0"
"326950461120855","3","-0.04168123","1.3376356","9.687403","sit up","0"
"326950481033980","3","-0.010540068","1.3591949","9.692194","sit up","0"
"326950500966532","3","0.030183077","1.3831497","9.689797","sit up","0"
"326950520879605","3","0.051742375","1.3567994","9.658657","sit up","0"
"326950540742001","3","0.078092635","1.3184718","9.653866","sit up","0"
"326950560655126","3","0.056533396","1.3424265","9.704171","sit up","0"
"326950580616740","3","0.013414741","1.3424265","9.62991","sit up","0"
"326950600529865","3","0.0014373064","1.3831497","9.617934","sit up","0"
"326950620389709","3","-0.01293546","1.4095","9.677821","sit up","0"
"326950640302782","3","-0.04407674","1.3759633","9.680216","sit up","0"
"326950660225542","3","-0.01293546","1.3400311","9.668239","sit up","0"
"326950680138615","3","0.030183077","1.3328447","9.670634","sit up","0"
"326950700078771","3","0.027787626","1.3208672","9.7089615","sit up","0"
"326950719991896","3","0.032578588","1.3208672","9.706566","sit up","0"
"326950739901271","3","0.054137886","1.3352401","9.6562605","sit up","0"
"326950759814396","3","0.07090622","1.3160763","9.62512","sit up","0"
"326950779715959","3","0.039765","1.3160763","9.677821","sit up","0"
"326950799629032","3","0.018205702","1.2729577","9.69938","sit up","0"
"326950819551740","3","0.0110192895","1.2873305","9.682611","sit up","0"
"326950839461271","3","0.008623779","1.3184718","9.677821","sit up","0"
"326950859374396","3","-0.020121932","1.3136808","9.685007","sit up","0"
"326950879283823","3","0.030183077","1.3232627","9.692194","sit up","0"
"326950899196896","3","0.06611526","1.3184718","9.665843","sit up","0"
"326950919074605","3","0.049346924","1.3352401","9.661052","sit up","0"
"326950938987678","3","0.051742375","1.3687768","9.701775","sit up","0"
"326950958910594","3","0.030183077","1.395127","9.661052","sit up","0"
"326950978823719","3","0.0062283278","1.3879406","9.680216","sit up","0"
"326950998725230","3","0.027787626","1.3328447","9.641888","sit up","0"
"326951018638303","3","0.030183077","1.3280537","9.675425","sit up","0"
"326951038516688","3","-0.022517443","1.3017035","9.723335","sit up","0"
"326951058429761","3","-0.020121932","1.3304492","9.7353115","sit up","0"
"326951078410907","3","-0.04168123","1.3999181","9.62991","sit up","0"
"326951098323928","3","-0.022517443","1.3879406","9.620329","sit up","0"
"326951118201376","3","0.0014373064","1.354404","9.62991","sit up","0"
"326951138114448","3","0.018205702","1.3328447","9.67303","sit up","0"
"326951158025178","3","0.020601213","1.3304492","9.696984","sit up","0"
"326951177938251","3","0.003832817","1.3328447","9.665843","sit up","0"
"326951197882261","3","-0.0033535957","1.3400311","9.646679","sit up","0"
"326951217795334","3","-0.0057491064","1.3256582","9.682611","sit up","0"
"326951237684136","3","-0.0057491064","1.3088899","9.689797","sit up","0"
"326951257597209","3","0.0110192895","1.3424265","9.661052","sit up","0"
"326951277502001","3","0.013414741","1.3424265","9.675425","sit up","0"
"326951297415126","3","0.0110192895","1.3304492","9.680216","sit up","0"
"326951317321636","3","0.008623779","1.3352401","9.689797","sit up","0"
"326951337234709","3","0.0014373064","1.3400311","9.663447","sit up","0"
"326951357172573","3","-9.5808506E-4","1.3424265","9.685007","sit up","0"
"326951377085646","3","0.0062283278","1.3424265","9.696984","sit up","0"
"326951397000438","3","0.008623779","1.344822","9.665843","sit up","0"
"326951416913511","3","0.003832817","1.3424265","9.649075","sit up","0"
"326951436826532","3","-9.5808506E-4","1.3567994","9.646679","sit up","0"
"326951456739657","3","0.013414741","1.3567994","9.6562605","sit up","0"
"326951476649136","3","0.0110192895","1.349613","9.658657","sit up","0"
"326951496562261","3","0.0062283278","1.3376356","9.653866","sit up","0"
"326951516430959","3","0.008623779","1.3567994","9.677821","sit up","0"
"326951536344032","3","0.003832817","1.3663813","9.677821","sit up","0"
"326951556267157","3","0.018205702","1.3520085","9.665843","sit up","0"
"326951576180230","3","0.008623779","1.349613","9.641888","sit up","0"
"326951596077053","3","0.008623779","1.349613","9.675425","sit up","0"
"326951615990126","3","0.015810192","1.3352401","9.687403","sit up","0"
"326951635937313","3","0.013414741","1.3328447","9.668239","sit up","0"
"326951655850438","3","0.013414741","1.344822","9.67303","sit up","0"
"326951675732938","3","0.0110192895","1.3280537","9.65147","sit up","0"
"326951695646011","3","0.020601213","1.3160763","9.668239","sit up","0"
"326951715554396","3","0.030183077","1.3328447","9.687403","sit up","0"
"326951735467469","3","0.020601213","1.349613","9.67303","sit up","0"
"326951755401948","3","0.0110192895","1.3591949","9.661052","sit up","0"
"326951775315021","3","0.015810192","1.3567994","9.668239","sit up","0"
"326951795190178","3","0.015810192","1.3520085","9.65147","sit up","0"
"326951815103251","3","0.015810192","1.3520085","9.639493","sit up","0"
"326951835023355","3","0.0062283278","1.3424265","9.682611","sit up","0"
"326951854936115","3","0.0110192895","1.3400311","9.680216","sit up","0"
"326951874821219","3","0.025392115","1.344822","9.675425","sit up","0"
"326951894734032","3","0.013414741","1.3304492","9.658657","sit up","0"
"326951914702157","3","0.0014373064","1.3328447","9.677821","sit up","0"
"326951934614865","3","0.018205702","1.349613","9.687403","sit up","0"
"326951954509396","3","0.008623779","1.3400311","9.653866","sit up","0"
"326951974422105","3","0.003832817","1.3591949","9.649075","sit up","0"
"326951994332313","3","0.003832817","1.3567994","9.677821","sit up","0"
"326952014245021","3","-0.0033535957","1.344822","9.675425","sit up","0"
"326952034162521","3","-0.0081445575","1.3424265","9.677821","sit up","0"
"326952054075230","3","0.0014373064","1.3352401","9.668239","sit up","0"
"326952073970907","3","0.008623779","1.3328447","9.685007","sit up","0"
"326952093883615","3","0.0110192895","1.344822","9.689797","sit up","0"
"326952113798094","3","0.0062283278","1.3424265","9.661052","sit up","0"
"326952133710803","3","-0.0033535957","1.3376356","9.685007","sit up","0"
"326952153574136","3","0.027787626","1.3400311","9.687403","sit up","0"
"326952173486844","3","0.022996664","1.3472176","9.682611","sit up","0"
"326952193435803","3","0.020601213","1.3472176","9.682611","sit up","0"
"326952213348563","3","-0.0033535957","1.3472176","9.682611","sit up","0"
"326952233259448","3","0.0110192895","1.3567994","9.682611","stand up","0"
"326952253172209","3","0.030183077","1.3376356","9.680216","stand up","0"
"326952273104032","3","0.027787626","1.354404","9.685007","stand up","0"
"326952293016740","3","0.018205702","1.3400311","9.685007","stand up","0"
"326952312910542","3","0.018205702","1.3376356","9.665843","stand up","0"
"326952332823303","3","0.015810192","1.344822","9.665843","stand up","0"
"326952352696115","3","-0.0081445575","1.3424265","9.67303","stand up","0"
"326952372608876","3","0.0062283278","1.3424265","9.65147","stand up","0"
"326952392537417","3","0.018205702","1.349613","9.62991","stand up","0"
"326952412450178","3","-0.0033535957","1.3591949","9.689797","stand up","0"
"326952432343980","3","0.008623779","1.349613","9.67303","stand up","0"
"326952452256740","3","0.015810192","1.3472176","9.627516","stand up","0"
"326952472203667","3","0.027787626","1.3520085","9.665843","stand up","0"
"326952492116376","3","0.015810192","1.3400311","9.706566","stand up","0"
"326952511999396","3","-0.010540068","1.3328447","9.663447","stand up","0"
"326952531912105","3","-0.01293546","1.3232627","9.644284","stand up","0"
"326952551817626","3","-0.036890328","1.3184718","9.649075","stand up","0"
"326952571730334","3","0.008623779","1.3184718","9.670634","stand up","0"
"326952591673251","3","-0.0081445575","1.3280537","9.7089615","stand up","0"
"326952611586011","3","-0.020121932","1.3424265","9.665843","stand up","0"
"326952631480698","3","-0.0033535957","1.3999181","9.644284","stand up","0"
"326952651393459","3","-0.010540068","1.395127","9.682611","stand up","0"
"326952671278928","3","0.027787626","1.3735678","9.665843","stand up","0"
"326952691191688","3","0.054137886","1.3472176","9.634702","stand up","0"
"326952711087417","3","0.032578588","1.3472176","9.694589","stand up","0"
"326952731000178","3","0.018205702","1.3879406","9.67303","stand up","0"
"326952750945438","3","0.032578588","1.3687768","9.637098","stand up","0"
"326952770858146","3","0.027787626","1.3663813","9.663447","stand up","0"
"326952790744553","3","0.025392115","1.3424265","9.696984","stand up","0"
"326952810657365","3","0.027787626","1.3088899","9.696984","stand up","0"
"326952830564813","3","0.022996664","1.2825396","9.692194","stand up","0"
"326952850477573","3","0.032578588","1.289726","9.653866","stand up","0"
"326952870422105","3","0.051742375","1.3520085","9.641888","stand up","0"
"326952890334605","3","0.022996664","1.3807542","9.69938","stand up","0"
"326952910179136","3","0.008623779","1.354404","9.704171","stand up","0"
"326952930091636","3","0.044555962","1.3639858","9.65147","stand up","0"
"326952950057417","3","0.032578588","1.3711723","9.689797","stand up","0"
"326952969969917","3","0.008623779","1.3591949","9.641888","stand up","0"
"326952989829240","3","0.018205702","1.3639858","9.639493","stand up","0"
"326953009741740","3","0.015810192","1.3783587","9.670634","stand up","0"
"326953029706584","3","-0.010540068","1.3759633","9.6562605","stand up","0"
"326953049619084","3","-0.020121932","1.3663813","9.675425","stand up","0"
"326953069497209","3","-0.017726481","1.3352401","9.675425","stand up","0"
"326953089409709","3","0.013414741","1.3136808","9.687403","stand up","0"
"326953109319344","3","0.04216051","1.3328447","9.680216","stand up","0"
"326953129231844","3","0.049346924","1.344822","9.701775","stand up","0"
"326953149164240","3","0.046951473","1.3879406","9.701775","stand up","0"
"326953169076740","3","0.0613243","1.3663813","9.632307","stand up","0"
"326953188971063","3","0.07330167","1.3472176","9.610746","stand up","0"
"326953208883563","3","0.07330167","1.304099","9.687403","stand up","0"
"326953228798511","3","0.058928847","1.2753532","9.740103","stand up","0"
"326953248710959","3","0.039765","1.3136808","9.711357","stand up","0"
"326953268608615","3","0.07569718","1.3783587","9.586792","stand up","0"
"326953288521115","3","0.08527905","1.4142909","9.584397","stand up","0"
"326953308481063","3","-0.14468688","1.4238728","9.737708","stand up","0"
"326953328393511","3","-0.29081103","1.3304492","9.649075","stand up","0"
"326953348290542","3","-0.24769244","1.6586297","9.500555","stand up","0"
"326953368203876","3","-0.106359184","1.5220875","9.428691","stand up","0"
"326953388116428","3","-0.060845137","1.0525737","10.025165","stand up","0"
"326953408040698","3","0.015810192","1.1603702","9.792804","stand up","0"
"326953427953198","3","-0.01293546","1.3687768","9.270589","stand up","0"
"326953447889813","3","-0.036890328","1.3927315","9.591583","stand up","0"
"326953467802313","3","0.2673354","1.1412064","9.821548","stand up","0"
"326953487718407","3","0.4374144","1.0597601","9.879041","stand up","0"
"326953507630855","3","0.1667254","1.1963024","9.850295","stand up","0"
"326953527547157","3","-0.024912953","1.2753532","9.639493","stand up","0"
"326953547459709","3","0.027787626","1.3208672","9.524509","stand up","0"
"326953567376011","3","0.039765","1.304099","9.610746","stand up","0"
"326953587288459","3","-0.01293546","1.299308","9.737708","stand up","0"
"326953607168823","3","-0.053658664","1.294517","9.778431","stand up","0"
"326953627081323","3","-0.020121932","1.2537938","9.677821","stand up","0"
"326953647028928","3","0.058928847","1.2370255","9.593979","stand up","0"
"326953666941376","3","0.09007007","1.2298391","9.658657","stand up","0"
"326953686803823","3","0.080488145","1.2633758","9.720939","stand up","0"
"326953706716323","3","0.027787626","1.2969124","9.687403","stand up","0"
"326953726654344","3","0.03736949","1.2705623","9.677821","stand up","0"
"326953746566844","3","0.078092635","1.2298391","9.663447","stand up","0"
"326953766481792","3","0.080488145","1.2298391","9.7089615","stand up","0"
"326953786394292","3","0.0349741","1.2561893","9.720939","stand up","0"
"326953806342573","3","0.020601213","1.2513983","9.692194","stand up","0"
"326953826255073","3","0.0110192895","1.2561893","9.694589","stand up","0"
"326953846136688","3","0.020601213","1.2513983","9.696984","stand up","0"
"326953866049136","3","0.054137886","1.2490029","9.680216","stand up","0"
"326953885931011","3","0.0349741","1.2513983","9.6562605","stand up","0"
"326953905843459","3","0.020601213","1.2585849","9.713753","stand up","0"
"326953925801532","3","0.025392115","1.2490029","9.653866","stand up","0"
"326953945714032","3","0.044555962","1.2466074","9.665843","stand up","0"
"326953965601532","3","0.025392115","1.2633758","9.687403","stand up","0"
"326953985513980","3","0.020601213","1.2753532","9.685007","stand up","0"
"326954005430751","3","0.022996664","1.2729577","9.677821","stand up","0"
"326954025343251","3","0.0349741","1.2490029","9.677821","stand up","0"
"326954045249917","3","0.030183077","1.2609802","9.692194","stand up","0"
"326954065162365","3","0.020601213","1.2753532","9.67303","stand up","0"
"326954085075803","3","0.025392115","1.2561893","9.685007","stand up","0"
"326954104988303","3","0.022996664","1.2561893","9.663447","stand up","0"
"326954124899396","3","0.032578588","1.2681668","9.670634","stand up","0"
"326954144811844","3","0.025392115","1.2729577","9.689797","stand up","0"
"326954164733251","3","0.018205702","1.2633758","9.67303","stand up","0"
"326954184645698","3","0.025392115","1.2657713","9.661052","stand up","0"
"326954204580907","3","0.0110192895","1.2633758","9.665843","stand up","0"
"326954224493407","3","0.0349741","1.2609802","9.689797","stand up","0"
"326954244371532","3","0.0062283278","1.2609802","9.711357","stand up","0"
"326954264283980","3","0.020601213","1.2561893","9.680216","stand up","0"
"326954284229865","3","0.0349741","1.2657713","9.682611","stand up","0"
"326954304142365","3","0.022996664","1.2681668","9.696984","stand up","0"
"326954324032157","3","0.015810192","1.2561893","9.682611","stand up","0"
"326954343944657","3","0.008623779","1.2561893","9.689797","stand up","0"
"326954363870542","3","0.018205702","1.2681668","9.687403","stand up","0"
"326954383782990","3","0.0349741","1.2657713","9.675425","stand up","0"
"326954403681948","3","0.027787626","1.2609802","9.668239","stand up","0"
"326954423594605","3","0.022996664","1.2561893","9.689797","stand up","0"
"326954443486688","3","0.04216051","1.2777487","9.694589","stand up","0"
"326954463399240","3","0.020601213","1.2657713","9.682611","stand up","0"
"326954483356271","3","0.032578588","1.2513983","9.67303","stand up","0"
"326954503268876","3","0.0349741","1.2537938","9.711357","stand up","0"
"326954523147209","3","0.018205702","1.2705623","9.680216","stand up","0"
"326954543059813","3","0.027787626","1.2609802","9.658657","stand up","0"
"326954562994761","3","0.032578588","1.2513983","9.704171","stand up","0"
"326954582907313","3","0.03736949","1.2561893","9.711357","stand up","0"
"326954602812313","3","0.020601213","1.2681668","9.675425","stand up","0"
"326954622724865","3","0.018205702","1.2657713","9.69938","stand up","0"
"326954642635126","3","0.025392115","1.2633758","9.685007","stand up","0"
"326954662547678","3","0.032578588","1.2633758","9.680216","stand up","0"
"326954682466323","3","0.022996664","1.2609802","9.685007","stand up","0"
"326954702378980","3","0.013414741","1.2705623","9.680216","stand up","0"
"326954722273511","3","0.0110192895","1.2657713","9.701775","stand up","0"
"326954742186063","3","0.0349741","1.2513983","9.67303","stand up","0"
"326954762151271","3","0.0349741","1.2585849","9.665843","stand up","0"
"326954782063876","3","0.025392115","1.2609802","9.67303","stand up","0"
"326954801921532","3","0.030183077","1.2633758","9.670634","stand up","0"
"326954821834136","3","0.03736949","1.2561893","9.680216","stand up","0"
"326954841799032","3","0.020601213","1.2705623","9.680216","stand up","0"
"326954861711584","3","0.027787626","1.2609802","9.682611","stand up","0"
"326954881591584","3","0.04216051","1.2609802","9.675425","stand up","0"
"326954901504188","3","0.015810192","1.2729577","9.682611","stand up","0"
"326954921448876","3","0.018205702","1.2633758","9.675425","stand up","0"
"326954941361480","3","0.032578588","1.2585849","9.682611","stand up","0"
"326954961271011","3","0.032578588","1.2585849","9.689797","stand up","0"
"326954981183615","3","0.04216051","1.2681668","9.675425","stand up","0"
"326955001054188","3","0.032578588","1.2609802","9.685007","stand up","0"
"326955020966792","3","0.03736949","1.2633758","9.692194","stand up","0"
"326955040931219","3","0.030183077","1.2753532","9.706566","stand up","0"
"326955060843823","3","0.013414741","1.2729577","9.677821","stand up","0"
"326955080712001","3","0.018205702","1.2729577","9.665843","stand up","0"
"326955100624657","3","0.025392115","1.2633758","9.663447","stand up","0"
"326955120554344","3","0.027787626","1.2681668","9.685007","stand up","0"
"326955140466896","3","0.04216051","1.2681668","9.675425","stand up","0"
"326955160392573","3","0.025392115","1.2681668","9.685007","stand up","0"
"326955180305126","3","0.020601213","1.2681668","9.682611","stand up","0"
"326955200206167","3","0.025392115","1.2657713","9.680216","stand up","0"
"326955220118771","3","0.030183077","1.2609802","9.685007","stand up","0"
"326955240033251","3","0.03736949","1.2609802","9.720939","stand up","0"
"326955259945855","3","0.022996664","1.2633758","9.680216","stand up","0"
"326955279838459","3","0.0110192895","1.2513983","9.692194","stand up","0"
"326955299751115","3","0.0349741","1.2681668","9.692194","stand up","0"
"326955319709344","3","0.04216051","1.2513983","9.682611","stand up","0"
"326955339621948","3","0.025392115","1.2609802","9.680216","stand up","0"
"326955359533459","3","0.020601213","1.2825396","9.687403","stand up","0"
"326955379446063","3","0.025392115","1.2657713","9.682611","stand up","0"
"326955399336584","3","0.025392115","1.2537938","9.7089615","stand up","0"
"326955419249240","3","0.022996664","1.2633758","9.689797","stand up","0"
"326955439164240","3","0.039765","1.2681668","9.677821","stand up","0"
"326955459076792","3","0.03736949","1.2681668","9.694589","stand up","0"
"326955478990073","3","0.0349741","1.2513983","9.663447","stand up","0"
"326955498902626","3","0.022996664","1.2585849","9.685007","stand up","0"
"326955518840490","3","0.032578588","1.2633758","9.665843","stand up","0"
"326955538753094","3","0.022996664","1.2705623","9.682611","stand up","0"
"326955558649136","3","0.022996664","1.2657713","9.689797","stand up","0"
"326955578561740","3","0.020601213","1.2657713","9.680216","stand up","0"
"326955598501167","3","0.0062283278","1.2681668","9.687403","stand up","0"
"326955618414032","3","0.025392115","1.2585849","9.701775","stand up","0"
"326955638254032","3","0.044555962","1.2705623","9.668239","stand up","0"
"326955658166792","3","0.018205702","1.2609802","9.670634","stand up","0"
"326955678119084","3","0.030183077","1.2561893","9.701775","stand up","0"
"326955698031896","3","0.032578588","1.2442119","9.687403","stand up","0"
"326955717947730","3","0.039765","1.2585849","9.689797","stand up","0"
"326955737860542","3","0.027787626","1.2657713","9.680216","stand up","0"
"326955757776636","3","0.044555962","1.2681668","9.67303","stand up","0"
"326955777689448","3","0.032578588","1.2633758","9.682611","stand up","0"
"326955797601792","3","0.03736949","1.2561893","9.670634","stand up","0"
"326955817514657","3","0.030183077","1.2729577","9.694589","stand up","0"
"326955837423563","3","0.027787626","1.2681668","9.685007","stand up","0"
"326955857336376","3","0.027787626","1.2585849","9.687403","stand up","0"
"326955877265803","3","0.015810192","1.2633758","9.663447","stand up","0"
"326955897178563","3","0.032578588","1.2585849","9.677821","stand up","0"
"326955917079605","3","0.020601213","1.2633758","9.696984","stand up","0"
"326955936992417","3","0.030183077","1.2561893","9.682611","stand up","0"
"326955956927001","3","0.027787626","1.2513983","9.682611","stand up","0"
"326955976839865","3","0.022996664","1.2609802","9.704171","stand up","0"
"326955996756688","3","0.039765","1.2633758","9.677821","stand up","0"
"326956016669501","3","0.044555962","1.2681668","9.687403","stand up","0"
"326956036566740","3","0.030183077","1.2657713","9.685007","stand up","0"
"326956056479553","3","0.025392115","1.2609802","9.687403","stand up","0"
"326956076410021","3","0.013414741","1.2609802","9.675425","stand up","0"
"326956096322886","3","0.018205702","1.2466074","9.675425","stand up","0"
"326956116251428","3","0.025392115","1.2729577","9.682611","stand up","0"
"326956136164240","3","0.044555962","1.2753532","9.680216","stand up","0"
"326956156040751","3","0.025392115","1.2609802","9.685007","stand up","0"
"326956175953563","3","0.027787626","1.2633758","9.682611","stand up","0"
"326956195886271","3","0.022996664","1.2561893","9.685007","stand up","0"
"326956215799032","3","0.032578588","1.2681668","9.687403","stand up","0"
"326956235697521","3","0.0349741","1.2657713","9.682611","stand up","1"
"326956255612157","3","0.039765","1.2657713","9.653866","none","1"
"326956275524917","3","0.032578588","1.2609802","9.675425","none","1"
"326956295441740","3","0.027787626","1.2537938","9.692194","none","1"
"326956315354501","3","0.027787626","1.2729577","9.696984","none","1"
"326956335230855","3","0.022996664","1.2705623","9.677821","none","1"
"326956355143667","3","0.022996664","1.2561893","9.675425","none","1"
"326956375100907","3","0.018205702","1.2633758","9.680216","none","1"
"326956395013667","3","0.032578588","1.2585849","9.685007","none","1"
"326956414928563","3","0.027787626","1.2705623","9.694589","none","1"
"326956434841376","3","0.025392115","1.2633758","9.685007","none","1"
"326956454749188","3","0.032578588","1.2585849","9.677821","none","1"
"326956474662001","3","0.015810192","1.2657713","9.696984","none","1"
"326956494586740","3","0.022996664","1.2585849","9.685007","none","1"
"326956514499605","3","0.0349741","1.2657713","9.692194","none","1"
"326956534409396","3","0.025392115","1.2537938","9.685007","none","1"
"326956554322209","3","0.04216051","1.2633758","9.668239","none","1"
"326956574223251","3","0.025392115","1.2657713","9.677821","none","1"
"326956594136063","3","0.022996664","1.2729577","9.687403","none","1"
"326956614043615","3","0.025392115","1.2633758","9.694589","none","1"
"326956633956376","3","0.018205702","1.2513983","9.694589","none","1"
"326956653884448","3","0.039765","1.2705623","9.687403","none","1"
"326956673797261","3","0.03736949","1.2633758","9.658657","none","1"
"326956693713563","3","0.027787626","1.2513983","9.692194","none","1"
"326956713626376","3","0.030183077","1.2633758","9.706566","none","1"
"326956733536740","3","0.025392115","1.2681668","9.67303","none","1"
"326956753449501","3","0.027787626","1.2657713","9.661052","none","1"
"326956773383511","3","0.022996664","1.2657713","9.706566","none","1"
"326956793296271","3","0.020601213","1.2585849","9.701775","none","1"
"326956813192053","3","0.032578588","1.2657713","9.665843","none","1"
"326956833104865","3","0.022996664","1.2633758","9.658657","none","1"
"326956853006167","3","0.018205702","1.2633758","9.704171","none","1"
"326956872918980","3","0.008623779","1.2705623","9.696984","none","1"
"326956892834761","3","0.03736949","1.2537938","9.67303","none","1"
"326956912747573","3","0.044555962","1.2442119","9.677821","none","1"
"326956932670907","3","0.039765","1.2657713","9.668239","none","1"
"326956952583719","3","0.020601213","1.2609802","9.665843","none","1"
"326956972497417","3","0.025392115","1.2585849","9.718544","none","1"
"326956992410230","3","0.027787626","1.2777487","9.696984","none","1"
"326957012322053","3","0.025392115","1.2513983","9.67303","none","1"
"326957032234865","3","0.030183077","1.2585849","9.69938","none","1"
"326957052152105","3","0.032578588","1.2705623","9.713753","none","1"
"326957072064865","3","0.025392115","1.2729577","9.677821","none","1"
"326957091958303","3","0.020601213","1.2561893","9.685007","none","1"
"326957111871115","3","0.020601213","1.2513983","9.689797","none","1"
"326957131784553","3","0.032578588","1.2657713","9.668239","none","1"
"326957151697313","3","0.022996664","1.2633758","9.687403","none","1"
"326957171607678","3","0.039765","1.2657713","9.701775","none","1"
"326957191520490","3","0.0349741","1.2681668","9.687403","none","1"
"326957211457730","3","0.015810192","1.2561893","9.685007","none","1"
"326957231370542","3","0.020601213","1.2466074","9.687403","none","1"
"326957251283198","3","0.025392115","1.2633758","9.685007","none","1"
"326957271196115","3","0.015810192","1.2681668","9.704171","none","1"
"326957291110751","3","0.032578588","1.2513983","9.685007","none","1"
"326957311023854","3","0.039765","1.2561893","9.694589","none","1"
"326957330937969","3","0.030183077","1.2561893","9.661052","none","1"
"326957350850938","3","0.025392115","1.2633758","9.692194","none","1"
"326957370780365","3","0.032578588","1.2633758","9.692194","none","1"
"326957390693281","3","0.039765","1.2681668","9.687403","none","1"
"326957410605208","3","0.027787626","1.2585849","9.67303","none","1"
"326957430518177","3","0.030183077","1.2681668","9.670634","none","1"
"326957450424583","3","0.032578588","1.2681668","9.685007","none","1"
"326957470337500","3","0.027787626","1.2801441","9.680216","none","1"
"326957490244167","3","0.030183077","1.2585849","9.677821","none","1"
"326957510157083","3","0.0349741","1.2585849","9.69938","none","1"
"326957530071354","3","0.030183077","1.2490029","9.687403","none","1"
"326957549984219","3","0.03736949","1.2609802","9.661052","none","1"
"326957569912344","3","0.039765","1.2585849","9.685007","none","1"
"326957589825313","3","0.032578588","1.2705623","9.670634","none","1"
"326957609717708","3","0.030183077","1.2633758","9.694589","none","1"
"326957629630677","3","0.039765","1.2777487","9.706566","none","1"
"326957649545365","3","0.039765","1.2609802","9.670634","none","1"
"326957669458281","3","0.032578588","1.2657713","9.675425","none","1"
"326957689371198","3","0.020601213","1.2681668","9.7089615","none","1"
"326957709284115","3","0.015810192","1.2513983","9.687403","none","1"
"326957729178958","3","0.020601213","1.2466074","9.692194","none","1"
"326957749091875","3","0.032578588","1.2609802","9.694589","none","1"
"326957769028594","3","0.027787626","1.2633758","9.680216","none","1"
"326957788941510","3","0.032578588","1.2513983","9.692194","none","1"
"326957808848906","3","0.027787626","1.2513983","9.670634","none","1"
"326957828761823","3","0.0349741","1.2513983","9.689797","none","1"
"326957848687917","3","0.015810192","1.2537938","9.680216","none","1"
"326957868600885","3","0.03736949","1.2585849","9.670634","none","1"
"326957888519948","3","0.027787626","1.2561893","9.665843","none","1"
"326957908432813","3","0.020601213","1.2657713","9.677821","none","1"
"326957928331719","3","0.022996664","1.2681668","9.680216","none","1"
"326957948244583","3","0.020601213","1.2609802","9.7089615","none","1"
"326957968186823","3","0.015810192","1.2657713","9.696984","none","1"
"326957988099740","3","0.039765","1.2609802","9.680216","none","1"
"326958007995781","3","0.03736949","1.2537938","9.663447","none","1"
"326958027908698","3","0.027787626","1.2561893","9.675425","none","1"
"326958047798594","3","0.04216051","1.2681668","9.677821","none","1"
"326958067711510","3","0.018205702","1.2585849","9.704171","none","1"
"326958087644010","3","0.022996664","1.2609802","9.680216","none","1"
"326958107556927","3","0.027787626","1.2609802","9.696984","none","1"
"326958127464948","3","0.022996664","1.2633758","9.706566","none","1"
"326958147377917","3","0.020601213","1.2633758","9.694589","none","1"
"326958167286771","3","0.025392115","1.2561893","9.685007","none","1"
"326958187199688","3","0.032578588","1.2585849","9.685007","none","1"
"326958207119740","3","0.03736949","1.2537938","9.692194","none","1"
"326958227032656","3","0.013414741","1.2633758","9.69938","none","1"
"326958246952656","3","0.027787626","1.2561893","9.687403","none","1"
"326958266865625","3","0.039765","1.2561893","9.663447","none","1"
"326958286769583","3","0.032578588","1.2657713","9.680216","none","1"
"326958306682552","3","0.030183077","1.2585849","9.689797","none","1"
"326958326596250","3","0.0349741","1.2537938","9.69938","none","1"
"326958346509219","3","0.03736949","1.2442119","9.694589","none","1"
"326958366425938","3","0.030183077","1.2585849","9.687403","none","1"
"326958386338958","3","0.0349741","1.2537938","9.67303","none","1"
"326958406266094","3","0.04216051","1.2633758","9.694589","none","1"
"326958426179063","3","0.0349741","1.2633758","9.689797","none","1"
"326958446097969","3","0.018205702","1.2633758","9.67303","none","1"
"326958466010938","3","0.025392115","1.2657713","9.67303","none","1"
"326958485918854","3","0.04216051","1.2561893","9.680216","none","1"
"326958505831823","3","0.030183077","1.2466074","9.677821","none","1"
"326958525739531","3","0.032578588","1.2633758","9.694589","none","1"
"326958545652552","3","0.04216051","1.2681668","9.696984","none","1"
"326958565557448","3","0.030183077","1.2609802","9.701775","none","1"
"326958585470417","3","0.020601213","1.2609802","9.69938","none","1"
"326958605371719","3","0.020601213","1.2537938","9.680216","none","1"
"326958625284688","3","0.022996664","1.2561893","9.680216","none","1"
"326958645214688","3","0.022996664","1.2609802","9.685007","none","1"
"326958665127708","3","0.020601213","1.2609802","9.685007","none","1"
"326958685024740","3","0.032578588","1.2633758","9.692194","none","1"
"326958704937760","3","0.0349741","1.2705623","9.694589","none","1"
"326958724886771","3","0.0349741","1.2681668","9.692194","none","1"
"326958744799740","3","0.018205702","1.2657713","9.685007","none","1"
"326958764709792","3","0.015810192","1.2633758","9.685007","none","1"
"326958784622760","3","0.018205702","1.2561893","9.701775","none","1"
"326958804524427","3","0.0349741","1.2513983","9.685007","none","1"
"326958824437396","3","0.039765","1.2633758","9.680216","none","1"
"326958844305365","3","0.0349741","1.2585849","9.675425","none","1"
"326958864218333","3","0.032578588","1.2466074","9.685007","none","1"
"326958884162292","3","0.032578588","1.2561893","9.706566","none","1"
"326958904075260","3","0.025392115","1.2513983","9.687403","none","1"
"326958923993229","3","0.018205702","1.2537938","9.685007","none","1"
"326958943906250","3","0.022996664","1.2681668","9.668239","none","1"
"326958963813594","3","0.025392115","1.2657713","9.701775","none","1"
"326958983726563","3","0.030183077","1.2657713","9.696984","none","1"
"326959003651979","3","0.025392115","1.2633758","9.682611","none","1"
"326959023564948","3","0.030183077","1.2585849","9.696984","none","1"
"326959043478021","3","0.032578588","1.2681668","9.665843","none","1"
"326959063391042","3","0.049346924","1.2729577","9.675425","none","1"
"326959083275052","3","0.03736949","1.2561893","9.706566","none","1"
"326959103188021","3","0.0349741","1.2513983","9.692194","none","1"
"326959123114115","3","0.025392115","1.2705623","9.692194","none","1"
"326959143027083","3","0.0349741","1.2657713","9.675425","none","1"
"326959162928438","3","0.027787626","1.2490029","9.680216","none","1"
"326959182841406","3","0.020601213","1.2561893","9.689797","none","1"
"326959202746042","3","0.022996664","1.2681668","9.687403","none","1"
"326959222659063","3","0.020601213","1.2609802","9.67303","none","1"
"326959242575365","3","0.015810192","1.2513983","9.682611","none","1"
"326959262488385","3","0.020601213","1.2537938","9.701775","none","1"
"326959282404010","3","0.015810192","1.2609802","9.704171","none","1"
"326959302317031","3","0.018205702","1.2657713","9.7089615","none","1"
"326959322212083","3","0.039765","1.2585849","9.694589","none","1"
"326959342125000","3","0.039765","1.2490029","9.689797","none","1"
"326959362054219","3","0.032578588","1.2633758","9.665843","none","1"
"326959381967031","3","0.030183077","1.2681668","9.680216","none","1"
"326959401870677","3","0.032578588","1.2705623","9.675425","none","1"
"326959421783542","3","0.018205702","1.2729577","9.696984","none","1"
"326959441700208","3","0.020601213","1.2537938","9.682611","none","1"
"326959461613073","3","0.027787626","1.2609802","9.682611","none","1"
"326959481530469","3","0.039765","1.2633758","9.680216","none","1"
"326959501443333","3","0.030183077","1.2681668","9.682611","none","1"
"326959521355521","3","0.03736949","1.2585849","9.665843","none","1"
"326959541268385","3","0.039765","1.2633758","9.682611","none","1"
"326959561196250","3","0.0349741","1.2418165","9.687403","none","1"
"326959581109063","3","0.0349741","1.2585849","9.677821","none","1"
"326959601008906","3","0.015810192","1.2729577","9.689797","none","1"
"326959620921719","3","0.032578588","1.2729577","9.687403","none","1"
"326959640838438","3","0.049346924","1.2490029","9.685007","none","1"
"326959660751302","3","0.022996664","1.2609802","9.670634","none","1"
"326959680662813","3","0.027787626","1.2633758","9.668239","none","1"
"326959700575677","3","0.030183077","1.2609802","9.663447","none","1"
"326959720489167","3","0.0349741","1.2633758","9.680216","none","1"
"326959740402031","3","0.025392115","1.2466074","9.689797","none","1"
"326959760318281","3","0.0349741","1.2466074","9.680216","none","1"
"326959780231094","3","0.013414741","1.2609802","9.689797","none","1"
"326959800144063","3","0.03736949","1.2609802","9.682611","none","1"
"326959820056927","3","0.04216051","1.2609802","9.668239","none","1"
"326959839975677","3","0.020601213","1.2537938","9.7089615","none","1"
"326959859888542","3","0.027787626","1.2609802","9.718544","none","1"
"326959879804583","3","0.027787626","1.2681668","9.682611","none","1"
"326959899717500","3","0.030183077","1.2657713","9.670634","none","1"
"326959919617865","3","0.027787626","1.2657713","9.680216","none","1"
"326959939530729","3","0.032578588","1.2513983","9.692194","none","1"
"326959959442708","3","0.03736949","1.2609802","9.675425","none","1"
"326959979355573","3","0.0349741","1.2585849","9.668239","none","1"
"326959999282396","3","0.030183077","1.2633758","9.680216","none","1"
"326960019195260","3","0.030183077","1.2681668","9.7089615","none","1"
"326960039121771","3","0.04216051","1.2705623","9.69938","none","1"
"326960059034688","3","0.0349741","1.2561893","9.687403","none","1"
"326960078949063","3","0.030183077","1.2490029","9.687403","none","1"
"326960098861927","3","0.039765","1.2609802","9.675425","none","1"
"326960118774948","3","0.0349741","1.2705623","9.665843","none","1"
"326960138687865","3","0.025392115","1.2657713","9.677821","none","1"
"326960158603281","3","0.0349741","1.2561893","9.69938","none","1"
"326960178516198","3","0.025392115","1.2777487","9.689797","none","1"
"326960198413750","3","0.027787626","1.2561893","9.677821","none","1"
"326960218326563","3","0.018205702","1.2585849","9.689797","sit down","1"
"326960238239115","3","0.032578588","1.2609802","9.696984","sit down","1"
"326960258151927","3","0.039765","1.2561893","9.694589","sit down","1"
"326960278070104","3","0.020601213","1.2609802","9.692194","sit down","1"
"326960297983021","3","0.022996664","1.2681668","9.687403","sit down","1"
"326960317929635","3","0.032578588","1.2585849","9.685007","sit down","1"
"326960337842500","3","0.044555962","1.2537938","9.668239","sit down","1"
"326960357753125","3","0.0349741","1.2561893","9.665843","sit down","1"
"326960377666302","3","0.025392115","1.2561893","9.694589","sit down","1"
"326960397582760","3","0.018205702","1.2561893","9.675425","sit down","1"
"326960417495885","3","0.020601213","1.2466074","9.701775","sit down","1"
"326960437394740","3","0.032578588","1.2418165","9.706566","sit down","1"
"326960457307865","3","0.03736949","1.2537938","9.665843","sit down","1"
"326960477226667","3","0.032578588","1.2633758","9.677821","sit down","1"
"326960497139740","3","0.027787626","1.2561893","9.661052","sit down","1"
"326960517027708","3","0.032578588","1.2513983","9.685007","sit down","1"
"326960536940833","3","0.025392115","1.2585849","9.692194","sit down","1"
"326960556903646","3","0.04216051","1.2729577","9.675425","sit down","1"
"326960576816823","3","0.025392115","1.2561893","9.65147","sit down","1"
"326960596697500","3","0.032578588","1.2561893","9.668239","sit down","1"
"326960616610625","3","0.0349741","1.2657713","9.677821","sit down","1"
"326960636522448","3","0.018205702","1.2537938","9.680216","sit down","1"
"326960656435573","3","0.032578588","1.2585849","9.692194","sit down","1"
"326960676351406","3","0.032578588","1.2513983","9.658657","sit down","1"
"326960696264531","3","0.018205702","1.2466074","9.680216","sit down","1"
"326960716215000","3","0.03736949","1.2561893","9.668239","sit down","1"
"326960736128125","3","0.049346924","1.2561893","9.663447","sit down","1"
"326960756032292","3","0.020601213","1.2561893","9.687403","sit down","1"
"326960775945417","3","0.025392115","1.2490029","9.687403","sit down","1"
"326960795856406","3","0.025392115","1.2537938","9.689797","sit down","1"
"326960815769531","3","0.022996664","1.2585849","9.682611","sit down","1"
"326960835664375","3","0.027787626","1.2561893","9.661052","sit down","1"
"326960855577500","3","0.022996664","1.2561893","9.687403","sit down","1"
"326960875491302","3","0.027787626","1.2418165","9.677821","sit down","1"
"326960895404427","3","0.025392115","1.2513983","9.687403","sit down","1"
"326960915356563","3","0.032578588","1.2585849","9.687403","sit down","1"
"326960935269635","3","0.027787626","1.2681668","9.668239","sit down","1"
"326960955147292","3","0.0349741","1.2633758","9.67303","sit down","1"
"326960975060365","3","0.030183077","1.2442119","9.682611","sit down","1"
"326960994968802","3","0.030183077","1.2633758","9.694589","sit down","1"
"326961014881875","3","0.022996664","1.2657713","9.682611","sit down","1"
"326961034820000","3","0.025392115","1.2513983","9.701775","sit down","1"
"326961054733125","3","0.039765","1.2537938","9.670634","sit down","1"
"326961074625938","3","0.025392115","1.2561893","9.663447","sit down","1"
"326961094539115","3","0.030183077","1.2490029","9.649075","sit down","1"
"326961114442292","3","0.0349741","1.2490029","9.653866","sit down","1"
"326961134355417","3","0.030183077","1.2561893","9.694589","sit down","1"
"326961154271094","3","0.027787626","1.2825396","9.661052","sit down","1"
"326961174184219","3","0.015810192","1.2561893","9.69938","sit down","1"
"326961194095938","3","0.025392115","1.2370255","9.677821","sit down","1"
"326961214009063","3","0.04216051","1.2370255","9.694589","sit down","1"
"326961233915781","3","0.046951473","1.2657713","9.687403","sit down","1"
"326961253828854","3","0.013414741","1.2418165","9.685007","sit down","1"
"326961273741823","3","0.015810192","1.2729577","9.718544","sit down","1"
"326961293655000","3","0.04216051","1.2705623","9.653866","sit down","1"
"326961313600000","3","0.03736949","1.2466074","9.670634","sit down","1"
"326961333513125","3","0.051742375","1.2513983","9.701775","sit down","1"
"326961353389688","3","0.0349741","1.2537938","9.682611","sit down","1"
"326961373302813","3","0.03736949","1.2561893","9.677821","sit down","1"
"326961393222760","3","0.018205702","1.2418165","9.682611","sit down","1"
"326961413135885","3","0.03736949","1.2609802","9.704171","sit down","1"
"326961433049896","3","0.039765","1.2490029","9.689797","sit down","1"
"326961452963021","3","0.022996664","1.2370255","9.72573","sit down","1"
"326961472873854","3","0.03736949","1.2346301","9.694589","sit down","1"
"326961492786979","3","0.046951473","1.2154663","9.692194","sit down","1"
"326961512693177","3","0.054137886","1.2298391","9.740103","sit down","1"
"326961532606250","3","0.07090622","1.1795341","9.713753","sit down","1"
"326961552521146","3","0.09486103","1.1268334","9.728126","sit down","1"
"326961572434219","3","0.049346924","1.1555792","9.761662","sit down","1"
"326961592381354","3","-9.5808506E-4","1.2154663","9.704171","sit down","1"
"326961612294427","3","0.054137886","1.2226527","9.677821","sit down","1"
"326961632181823","3","0.046951473","1.2010933","9.711357","sit down","1"
"326961652094896","3","0.049346924","1.2609802","9.687403","sit down","1"
"326961672003750","3","0.054137886","1.3615904","9.62512","sit down","1"
"326961691916823","3","0.0062283278","1.4622004","9.593979","sit down","1"
"326961711861771","3","-0.024912953","1.5412512","9.560442","sit down","1"
"326961731743438","3","0.022996664","1.5819744","9.548465","sit down","1"
"326961751656510","3","0.046951473","1.5580196","9.558047","sit down","1"
"326961771588281","3","0.032578588","1.4622004","9.639493","sit down","1"
"326961791501354","3","0.015810192","1.3160763","9.75208","sit down","1"
"326961811441458","3","-0.010540068","1.2537938","9.730521","sit down","1"
"326961831354583","3","-0.0033535957","1.2873305","9.685007","sit down","1"
"326961851272760","3","0.015810192","1.3424265","9.677821","sit down","1"
"326961871185833","3","0.054137886","1.354404","9.670634","sit down","1"
"326961891095885","3","0.06851077","1.3855451","9.637098","sit down","1"
"326961911008958","3","0.09486103","1.4214773","9.610746","sit down","1"
"326961930940000","3","0.11402482","1.4071045","9.658657","sit down","1"
"326961950853073","3","0.06371975","1.344822","9.677821","sit down","1"
"326961970753698","3","0.039765","1.2585849","9.677821","sit down","1"
"326961990666771","3","0.03736949","1.2633758","9.682611","sit down","1"
"326962010578698","3","0.030183077","1.289726","9.69938","sit down","1"
"326962030491771","3","0.054137886","1.3112854","9.694589","sit down","1"
"326962050387552","3","0.06851077","1.3064944","9.694589","sit down","1"
"326962070300625","3","0.06611526","1.2633758","9.670634","sit down","1"
"326962090214948","3","0.03736949","1.2633758","9.661052","sit down","1"
"326962110128021","3","0.0349741","1.2849351","9.692194","sit down","1"
"326962130079479","3","0.03736949","1.3088899","9.687403","sit down","1"
"326962149992552","3","0.051742375","1.3208672","9.677821","sit down","1"
"326962169869271","3","0.039765","1.3208672","9.685007","sit down","1"
"326962189782396","3","0.046951473","1.3256582","9.670634","sit down","1"
"326962209714531","3","0.039765","1.3160763","9.687403","sit down","1"
"326962229627604","3","0.032578588","1.3256582","9.685007","sit down","1"
"326962249530885","3","0.018205702","1.3424265","9.687403","sit down","1"
"326962269444010","3","0.020601213","1.3567994","9.661052","sit down","1"
"326962289385573","3","0.032578588","1.3711723","9.634702","sit down","1"
"326962309298646","3","0.03736949","1.3879406","9.670634","sit down","1"
"326962329189792","3","0.030183077","1.3567994","9.677821","sit down","1"
"326962349102865","3","0.044555962","1.3472176","9.661052","sit down","1"
"326962369010208","3","0.046951473","1.3304492","9.675425","sit down","1"
"326962388923281","3","0.0349741","1.3328447","9.692194","sit down","1"
"326962408869167","3","0.046951473","1.3328447","9.661052","sit down","1"
"326962428782240","3","0.03736949","1.3376356","9.653866","sit down","1"
"326962448650313","3","0.022996664","1.3280537","9.680216","sit down","1"
"326962468563438","3","0.054137886","1.3280537","9.689797","sit down","1"
"326962488504896","3","0.046951473","1.3184718","9.67303","sit down","1"
"326962508417969","3","0.03736949","1.3184718","9.658657","sit down","1"
"326962528345625","3","0.0349741","1.3208672","9.675425","sit down","1"
"326962548258698","3","0.046951473","1.3256582","9.689797","sit down","1"
"326962568141875","3","0.049346924","1.3208672","9.6562605","sit down","1"
"326962588054948","3","0.056533396","1.3088899","9.646679","sit down","1"
"326962607984219","3","0.0349741","1.3136808","9.680216","sit down","1"
"326962627884115","3","0.03736949","1.3232627","9.682611","sit down","1"
"326962647793438","3","0.051742375","1.3232627","9.65147","sit down","1"
"326962667719583","3","0.049346924","1.3232627","9.682611","sit down","1"
"326962687632656","3","0.030183077","1.3232627","9.665843","sit down","1"
"326962707524219","3","0.032578588","1.3160763","9.704171","sit down","1"
"326962727437292","3","0.032578588","1.3304492","9.696984","sit down","1"
"326962747349010","3","0.032578588","1.344822","9.641888","sit down","1"
"326962767262083","3","0.032578588","1.3376356","9.653866","sit down","1"
"326962787181771","3","0.025392115","1.3352401","9.689797","sit down","1"
"326962807094844","3","0.04216051","1.344822","9.663447","sit down","1"
"326962827025104","3","0.032578588","1.3400311","9.641888","sit down","1"
"326962846938177","3","0.032578588","1.3352401","9.680216","sit down","1"
"326962866848906","3","0.054137886","1.3328447","9.677821","sit down","1"
"326962886761979","3","0.03736949","1.3184718","9.677821","sit down","1"
"326962906648646","3","0.027787626","1.3520085","9.649075","sit down","1"
"326962926561771","3","0.039765","1.3256582","9.658657","sit down","1"
"326962946492969","3","0.03736949","1.3184718","9.69938","sit down","1"
"326962966406042","3","0.022996664","1.3280537","9.661052","sit down","1"
"326962986309375","3","0.039765","1.3256582","9.632307","sit down","1"
"326963006222500","3","0.046951473","1.3160763","9.67303","sit down","1"
"326963026166771","3","0.044555962","1.3160763","9.6562605","sit down","1"
"326963046079844","3","0.03736949","1.3112854","9.658657","sit down","1"
"326963065978281","3","0.030183077","1.3064944","9.665843","sit down","1"
"326963085891406","3","0.030183077","1.3208672","9.67303","sit down","1"
"326963105814375","3","0.044555962","1.3376356","9.689797","sit down","1"
"326963125727448","3","0.044555962","1.3280537","9.65147","sit down","1"
"326963145640052","3","0.039765","1.3064944","9.668239","sit down","1"
"326963165553125","3","0.032578588","1.3184718","9.670634","sit down","1"
"326963185447135","3","0.04216051","1.3328447","9.668239","sit down","1"
"326963205360260","3","0.0349741","1.3184718","9.67303","sit down","1"
"326963225270833","3","0.03736949","1.3280537","9.685007","sit down","1"
"326963245183906","3","0.03736949","1.3184718","9.670634","sit down","1"
"326963265091094","3","0.046951473","1.3304492","9.665843","sit down","1"
"326963285004167","3","0.027787626","1.3280537","9.687403","sit down","1"
"326963304924010","3","0.039765","1.3328447","9.680216","sit down","1"
"326963324837083","3","0.0349741","1.3328447","9.668239","sit down","1"
"326963344749375","3","0.022996664","1.3328447","9.680216","sit down","1"
"326963364662448","3","0.030183077","1.3352401","9.67303","sit down","1"
"326963384569740","3","0.030183077","1.3328447","9.653866","sit down","1"
"326963404482865","3","0.04216051","1.3280537","9.65147","sit down","1"
"326963424397135","3","0.039765","1.3376356","9.670634","sit down","1"
"326963444310208","3","0.058928847","1.3208672","9.69938","sit down","1"
"326963464234271","3","0.04216051","1.3232627","9.668239","sit down","1"
"326963484147292","3","0.04216051","1.3352401","9.670634","sit down","1"
"326963504065208","3","0.044555962","1.3136808","9.685007","sit down","1"
"326963523978281","3","0.04216051","1.3160763","9.680216","sit down","1"
"326963543848594","3","0.03736949","1.3352401","9.675425","sit down","1"
"326963563761667","3","0.022996664","1.3328447","9.675425","sit down","1"
"326963583706458","3","0.030183077","1.3232627","9.668239","sit down","1"
"326963603619583","3","0.032578588","1.3424265","9.675425","sit down","1"
"326963623521510","3","0.03736949","1.3280537","9.670634","sit down","1"
"326963643434583","3","0.030183077","1.3232627","9.668239","sit down","1"
"326963663344792","3","0.0349741","1.3208672","9.67303","sit down","1"
"326963683257760","3","0.032578588","1.3208672","9.670634","sit down","1"
"326963703159792","3","0.030183077","1.3256582","9.658657","sit down","1"
"326963723072813","3","0.044555962","1.3112854","9.663447","sit down","1"
"326963742982760","3","0.046951473","1.3304492","9.675425","sit down","1"
"326963762895781","3","0.03736949","1.3352401","9.65147","sit down","1"
"326963782809583","3","0.046951473","1.3280537","9.675425","sit down","1"
"326963802722604","3","0.032578588","1.3184718","9.677821","sit down","1"
"326963822630990","3","0.0014373064","1.3184718","9.685007","sit down","1"
"326963842544010","3","0.027787626","1.3352401","9.670634","sit down","1"
"326963862448802","3","0.030183077","1.3376356","9.675425","sit down","1"
"326963882361823","3","0.0349741","1.3400311","9.668239","sit down","1"
"326963902289948","3","0.044555962","1.3400311","9.6562605","sit down","1"
"326963922202969","3","0.044555962","1.3424265","9.685007","sit down","1"
"326963942103594","3","0.04216051","1.3304492","9.663447","sit down","1"
"326963962016615","3","0.039765","1.3160763","9.668239","sit down","1"
"326963981927865","3","0.046951473","1.3232627","9.677821","sit down","1"
"326964001840885","3","0.044555962","1.3400311","9.658657","sit down","1"
"326964021739323","3","0.025392115","1.3304492","9.653866","sit down","1"
"326964041652344","3","0.03736949","1.3328447","9.663447","sit down","1"
"326964061580990","3","0.044555962","1.3208672","9.680216","sit down","1"
"326964081494010","3","0.051742375","1.3232627","9.661052","sit down","1"
"326964101400104","3","0.03736949","1.344822","9.680216","sit down","1"
"326964121313125","3","0.056533396","1.3400311","9.680216","sit down","1"
"326964141235365","3","0.049346924","1.3328447","9.6562605","sit down","1"
"326964161148385","3","0.0349741","1.3304492","9.677821","sit down","1"
"326964181072969","3","0.032578588","1.3400311","9.687403","sit down","1"
"326964200985990","3","0.032578588","1.3232627","9.677821","sit down","1"
"326964220859948","3","0.030183077","1.3136808","9.653866","lay down","1"
"326964240773021","3","0.025392115","1.3208672","9.687403","lay down","1"
"326964260716042","3","0.03736949","1.3376356","9.665843","lay down","1"
"326964280629010","3","0.039765","1.3304492","9.665843","lay down","1"
"326964300513229","3","0.046951473","1.3280537","9.680216","lay down","1"
"326964320426250","3","0.032578588","1.3232627","9.6562605","lay down","1"
"326964340334063","3","0.0349741","1.3352401","9.675425","lay down","1"
"326964360247083","3","0.049346924","1.3280537","9.658657","lay down","1"
"326964380185781","3","0.03736949","1.3208672","9.661052","lay down","1"
"326964400098802","3","0.044555962","1.3567994","9.668239","lay down","1"
"326964420009427","3","0.056533396","1.3352401","9.663447","lay down","1"
"326964439922448","3","0.044555962","1.3208672","9.6562605","lay down","1"
"326964459833490","3","0.04216051","1.3088899","9.649075","lay down","1"
"326964479746458","3","0.03736949","1.3232627","9.665843","lay down","1"
"326964499657760","3","0.030183077","1.3400311","9.646679","lay down","1"
"326964519570781","3","0.030183077","1.3304492","9.665843","lay down","1"
"326964539452969","3","0.039765","1.3208672","9.67303","lay down","1"
"326964559365990","3","0.027787626","1.3136808","9.694589","lay down","1"
"326964579298854","3","0.008623779","1.3017035","9.670634","lay down","1"
"326964599211875","3","0.030183077","1.3088899","9.696984","lay down","1"
"326964619085885","3","0.054137886","1.3064944","9.675425","lay down","1"
"326964638998958","3","0.06371975","1.3424265","9.661052","lay down","1"
"326964658930729","3","0.03736949","1.3759633","9.682611","lay down","1"
"326964678843750","3","0.0349741","1.3520085","9.67303","lay down","1"
"326964698756198","3","0.06371975","1.3112854","9.65147","lay down","1"
"326964718668958","3","0.049346924","1.3088899","9.680216","lay down","1"
"326964738573438","3","0.03736949","1.3376356","9.682611","lay down","1"
"326964758486198","3","0.015810192","1.349613","9.668239","lay down","1"
"326964778400469","3","0.039765","1.3208672","9.658657","lay down","1"
"326964798313229","3","0.07330167","1.2753532","9.687403","lay down","1"
"326964818215833","3","0.0613243","1.2681668","9.720939","lay down","1"
"326964838128594","3","0.0349741","1.2921215","9.69938","lay down","1"
"326964858041146","3","0.022996664","1.3256582","9.682611","lay down","1"
"326964877953906","3","0.013414741","1.3184718","9.6562605","lay down","1"
"326964897850573","3","0.03736949","1.304099","9.65147","lay down","1"
"326964917763333","3","0.051742375","1.3783587","9.608352","lay down","1"
"326964937711198","3","-0.0057491064","1.459805","9.685007","lay down","1"
"326964957623958","3","0.018205702","1.3807542","9.627516","lay down","1"
"326964977520990","3","0.15474796","1.2633758","9.596374","lay down","1"
"326964997433750","3","0.09007007","1.2010933","9.744894","lay down","1"
"326965017310885","3","0.008623779","1.2178617","9.749685","lay down","1"
"326965037223698","3","0.015810192","1.3615904","9.69938","lay down","1"
"326965057182188","3","0.039765","1.3975226","9.696984","lay down","1"
"326965077094948","3","0.08527905","1.3328447","9.641888","lay down","1"
"326965096969271","3","0.11881584","1.4813644","9.622725","lay down","1"
"326965116882031","3","0.06371975","1.6634207","9.596374","lay down","1"
"326965136795208","3","0.07090622","1.4909462","9.438272","lay down","1"
"326965156707969","3","0.13797963","1.3112854","9.546069","lay down","1"
"326965176621927","3","0.06851077","1.3088899","9.771244","lay down","1"
"326965196534688","3","0.030183077","1.3208672","9.831131","lay down","1"
"326965216442240","3","0.04216051","1.3160763","9.783222","lay down","1"
"326965236355052","3","0.0110192895","1.3831497","9.639493","lay down","1"
"326965256277708","3","-0.036890328","1.4334548","9.641888","lay down","1"
"326965276190521","3","-0.032099366","1.4622004","9.617934","lay down","1"
"326965296083854","3","-0.01533097","1.459805","9.562838","lay down","1"
"326965315996615","3","-9.5808506E-4","1.3064944","9.620329","lay down","1"
"326965335938854","3","-0.0033535957","1.2490029","9.730521","lay down","1"
"326965355851615","3","0.025392115","1.3017035","9.728126","lay down","1"
"326965375745000","3","0.07330167","1.3376356","9.7089615","lay down","1"
"326965395657760","3","0.058928847","1.2753532","9.620329","lay down","1"
"326965415584531","3","0.06371975","1.2873305","9.685007","lay down","1"
"326965435497292","3","0.06851077","1.2969124","9.682611","lay down","1"
"326965455405156","3","0.020601213","1.3017035","9.65147","lay down","1"
"326965475317917","3","0.07569718","1.3256582","9.680216","lay down","1"
"326965495197188","3","0.10204744","1.2537938","9.685007","lay down","1"
"326965515110000","3","0.09007007","1.2154663","9.677821","lay down","1"
"326965535038333","3","0.008623779","1.2777487","9.742498","lay down","1"
"326965554951094","3","-0.08719534","1.3088899","9.692194","lay down","1"
"326965574840208","3","-0.032099366","1.3687768","9.62991","lay down","1"
"326965594752969","3","0.058928847","1.4382457","9.593979","lay down","1"
"326965614697292","3","0.03736949","1.4813644","9.534092","lay down","1"
"326965634610052","3","0.022996664","1.5053191","9.505346","lay down","1"
"326965654502240","3","0.039765","1.5580196","9.584397","lay down","1"
"326965674415000","3","0.022996664","1.4526186","9.591583","lay down","1"
"326965694311719","3","0.030183077","1.3831497","9.608352","lay down","1"
"326965714229323","3","0.06851077","1.4813644","9.620329","lay down","1"
"326965734142083","3","0.07090622","1.5412512","9.57242","lay down","1"
"326965754031979","3","0.056533396","1.4933417","9.584397","lay down","1"
"326965773944740","3","0.015810192","1.4957372","9.555651","lay down","1"
"326965793892656","3","-0.017726481","1.5172964","9.567629","lay down","1"
"326965813805417","3","-0.08959085","1.4933417","9.720939","lay down","1"
"326965833713229","3","-0.060845137","1.4693869","9.7353115","lay down","1"
"326965853625990","3","-0.13270944","1.4190818","9.706566","lay down","1"
"326965873520990","3","-0.22134215","1.3879406","9.742498","lay down","1"
"326965893433802","3","-0.22134215","1.349613","9.687403","lay down","1"
"326965913360260","3","-0.18540996","1.3855451","9.644284","lay down","1"
"326965933273021","3","-0.15905976","1.395127","9.661052","lay down","1"
"326965953157396","3","-0.108754694","1.4071045","9.589188","lay down","1"
"326965973070156","3","-0.0919863","1.3591949","9.67303","lay down","1"
"326965992995260","3","-0.11594111","1.2801441","9.807176","lay down","1"
"326966012908021","3","-0.09917271","0.99747765","9.737708","lay down","1"
"326966032809375","3","-0.056054115","0.9423816","9.689797","lay down","1"
"326966052722135","3","-0.16385067","1.304099","9.857482","lay down","1"
"326966072616302","3","-0.49203122","1.7328895","9.682611","lay down","1"
"326966092529063","3","-0.48963574","1.6083248","9.426295","lay down","1"
"326966112454375","3","-0.11833656","0.81302583","9.4239","lay down","1"
"326966132367135","3","0.09007007","0.71002024","9.862272","lay down","1"
"326966152252917","3","-0.17343253","1.3088899","9.996419","lay down","1"
"326966172165729","3","-0.41537592","1.5077146","9.713753","lay down","1"
"326966192098854","3","-0.39381662","1.3136808","9.605956","lay down","1"
"326966212011667","3","-0.31955677","1.2753532","9.567629","lay down","1"
"326966231868073","3","-0.38183922","1.299308","9.756871","lay down","1"
"326966251780833","3","-0.44172618","1.2705623","9.9796505","lay down","1"
"326966271741094","3","-0.48963574","1.304099","9.82634","lay down","1"
"326966291653854","3","-0.4824493","1.3017035","9.644284","lay down","1"
"326966311582135","3","-0.50400865","1.3376356","9.776035","lay down","1"
"326966331494896","3","-0.520777","1.3424265","9.855085","lay down","1"
"326966351400625","3","-0.5279634","1.3400311","9.759267","lay down","1"
"326966371313385","3","-0.50879955","1.2825396","9.610746","lay down","1"
"326966391203854","3","-0.44412166","1.2849351","9.668239","lay down","1"
"326966411116667","3","-0.43214428","1.349613","9.711357","lay down","1"
"326966431022396","3","-0.4177714","1.395127","9.550859","lay down","1"
"326966450935156","3","-0.35548896","1.4406412","9.507742","lay down","1"
"326966470862917","3","-0.38663018","1.4238728","9.562838","lay down","1"
"326966490775729","3","-0.4273533","1.4262683","9.57242","lay down","1"
"326966510687708","3","-0.41537592","1.4550141","9.562838","lay down","1"
"326966530600469","3","-0.42016685","1.3064944","9.622725","lay down","1"
"326966550512604","3","-0.41298044","1.2130708","9.7089615","lay down","1"
"326966570425365","3","-0.3602799","1.1723477","9.649075","lay down","1"
"326966590325156","3","-0.58305943","1.2106752","9.711357","lay down","1"
"326966610237969","3","-0.76990676","2.0562792","9.754476","lay down","1"
"326966630150625","3","-0.20936471","2.420392","9.210702","lay down","1"
"326966650063385","3","-0.42256233","1.1483928","9.225075","lay down","1"
"326966669968646","3","-0.65731925","0.7483479","10.2503395","lay down","1"
"326966689881406","3","-0.4273533","1.2010933","10.061097","lay down","1"
"326966709804010","3","-0.40818948","1.5484377","9.514928","lay down","1"
"326966729716510","3","-0.6022232","1.6274885","9.536487","lay down","1"
"326966749626823","3","-0.5567092","1.4190818","9.622725","lay down","1"
"326966769539323","3","-0.32434773","1.1723477","9.77364","lay down","1"
"326966789438438","3","-0.30039293","1.2106752","9.749685","lay down","1"
"326966809350885","3","-0.50879955","1.3567994","9.560442","lay down","1"
"326966829250625","3","-0.54712725","1.3376356","9.60356","lay down","1"
"326966849163073","3","-0.44891262","1.1891159","9.7353115","lay down","1"
"326966869093073","3","-0.37944373","1.13402","9.764058","lay down","1"
"326966889005573","3","-0.38663018","1.2202572","9.7089615","lay down","1"
"326966908878542","3","-0.45609906","1.2633758","9.634702","lay down","1"
"326966928790990","3","-0.5279634","1.2537938","9.694589","lay down","1"
"326966948719635","3","-0.5734775","1.2873305","9.730521","lay down","1"
"326966968632188","3","-0.5950368","1.3663813","9.675425","lay down","1"
"326966988565052","3","-0.53275436","1.3999181","9.663447","lay down","1"
"326967008477552","3","-0.44172618","1.390336","9.759267","lay down","1"
"326967028387813","3","-0.44172618","1.4071045","9.716147","lay down","1"
"326967048300313","3","-0.43693522","1.4669914","9.632307","lay down","1"
"326967068194167","3","-0.51119506","1.4741778","9.608352","lay down","1"
"326967088106719","3","-0.51119506","1.4334548","9.65147","lay down","1"
"326967108012240","3","-0.44891262","1.4071045","9.627516","lay down","1"
"326967127924740","3","-0.4177714","1.3639858","9.567629","lay down","1"
"326967147856042","3","-0.4273533","1.3424265","9.605956","lay down","1"
"326967167768542","3","-0.45130807","1.3112854","9.670634","lay down","1"
"326967187683021","3","-0.44651714","1.294517","9.649075","lay down","1"
"326967207595521","3","-0.44412166","1.2753532","9.658657","lay down","1"
"326967227507083","3","-0.43453974","1.2825396","9.665843","lay down","1"
"326967247419583","3","-0.46089","1.2825396","9.653866","lay down","1"
"326967267330156","3","-0.46328548","1.2873305","9.680216","lay down","1"
"326967287242656","3","-0.47047192","1.2825396","9.718544","lay down","1"
"326967307127917","3","-0.47765836","1.289726","9.713753","lay down","1"
"326967327040417","3","-0.48724028","1.3208672","9.7089615","lay down","1"
"326967346958073","3","-0.50879955","1.349613","9.720939","lay down","1"
"326967366870573","3","-0.50400865","1.3567994","9.728126","lay down","1"
"326967386800000","3","-0.49442673","1.3807542","9.696984","lay down","1"
"326967406712500","3","-0.49921766","1.3855451","9.694589","lay down","1"
"326967426600990","3","-0.46328548","1.3663813","9.649075","lay down","1"
"326967446513490","3","-0.47765836","1.3711723","9.622725","lay down","1"
"326967466420573","3","-0.46328548","1.3855451","9.620329","lay down","1"
"326967486333073","3","-0.46328548","1.3687768","9.615538","lay down","1"
"326967506226875","3","-0.44412166","1.344822","9.627516","lay down","1"
"326967526139375","3","-0.44891262","1.3472176","9.62991","lay down","1"
"326967546065260","3","-0.46807644","1.3280537","9.641888","lay down","1"
"326967565977760","3","-0.48724028","1.3232627","9.696984","lay down","1"
"326967585871615","3","-0.49203122","1.3160763","9.706566","lay down","1"
"326967605784115","3","-0.48724028","1.3088899","9.701775","lay down","1"
"326967625704583","3","-0.49442673","1.3112854","9.675425","lay down","1"
"326967645617083","3","-0.48484477","1.3136808","9.701775","lay down","1"
"326967665528177","3","-0.48005384","1.344822","9.677821","lay down","1"
"326967685440677","3","-0.4824493","1.3567994","9.677821","lay down","1"
"326967705351771","3","-0.46807644","1.3639858","9.644284","lay down","1"
"326967725264271","3","-0.47765836","1.3567994","9.687403","lay down","1"
"326967745193229","3","-0.47047192","1.3591949","9.677821","lay down","1"
"326967765105521","3","-0.47047192","1.3663813","9.646679","lay down","1"
"326967784992708","3","-0.44891262","1.3735678","9.665843","lay down","1"
"326967804904948","3","-0.46807644","1.3663813","9.62991","lay down","1"
"326967824807083","3","-0.48005384","1.3591949","9.646679","lay down","1"
"326967844719375","3","-0.4728674","1.3400311","9.663447","lay down","1"
"326967864622031","3","-0.46807644","1.3136808","9.689797","lay down","1"
"326967884534271","3","-0.47765836","1.3256582","9.692194","lay down","1"
"326967904480833","3","-0.48724028","1.3376356","9.675425","lay down","1"
"326967924393125","3","-0.47526285","1.3256582","9.689797","lay down","1"
"326967944281510","3","-0.47526285","1.3304492","9.685007","lay down","1"
"326967964193750","3","-0.47526285","1.3304492","9.670634","lay down","1"
"326967984103177","3","-0.48724028","1.3424265","9.649075","lay down","1"
"326968004007969","3","-0.49442673","1.349613","9.677821","lay down","1"
"326968023948385","3","-0.47765836","1.3328447","9.663447","lay down","1"
"326968043831719","3","-0.46328548","1.3400311","9.675425","lay down","1"
"326968063744010","3","-0.4824493","1.3567994","9.65147","lay down","1"
"326968083681667","3","-0.47047192","1.3615904","9.661052","lay down","1"
"326968103593958","3","-0.4584945","1.344822","9.680216","lay down","1"
"326968123504635","3","-0.47047192","1.3232627","9.680216","lay down","1"
"326968143416927","3","-0.4728674","1.3352401","9.687403","lay down","1"
"326968163306823","3","-0.4824493","1.3376356","9.685007","lay down","1"
"326968183219063","3","-0.50400865","1.3208672","9.680216","lay down","1"
"326968203111667","3","-0.47765836","1.3232627","9.675425","lay down","1"
"326968223023906","3","-0.46328548","1.349613","9.663447","sit up","1"
"326968242946875","3","-0.47047192","1.3520085","9.675425","sit up","1"
"326968262859167","3","-0.48963574","1.3567994","9.663447","sit up","1"
"326968282772448","3","-0.47526285","1.3472176","9.680216","sit up","1"
"326968302684688","3","-0.46568096","1.3591949","9.677821","sit up","1"
"326968322609271","3","-0.46807644","1.3376356","9.663447","sit up","1"
"326968342521563","3","-0.49203122","1.3352401","9.696984","sit up","1"
"326968362399479","3","-0.48963574","1.3400311","9.661052","sit up","1"
"326968382311719","3","-0.48963574","1.3352401","9.677821","sit up","1"
"326968402236406","3","-0.47765836","1.3424265","9.65147","sit up","1"
"326968422148646","3","-0.46328548","1.344822","9.649075","sit up","1"
"326968442067240","3","-0.45130807","1.3639858","9.670634","sit up","1"
"326968461979583","3","-0.47526285","1.349613","9.649075","sit up","1"
"326968481893750","3","-0.47765836","1.3520085","9.680216","sit up","1"
"326968501806042","3","-0.4824493","1.3472176","9.692194","sit up","1"
"326968521679740","3","-0.4728674","1.3208672","9.692194","sit up","1"
"326968541592031","3","-0.46089","1.3208672","9.701775","sit up","1"
"326968561515625","3","-0.46328548","1.3400311","9.670634","sit up","1"
"326968581427865","3","-0.48484477","1.3352401","9.687403","sit up","1"
"326968601355313","3","-0.46807644","1.3352401","9.627516","sit up","1"
"326968621267604","3","-0.46807644","1.3280537","9.670634","sit up","1"
"326968641161875","3","-0.4728674","1.3328447","9.682611","sit up","1"
"326968661074167","3","-0.47765836","1.3064944","9.677821","sit up","1"
"326968680963594","3","-0.4824493","1.3017035","9.689797","sit up","1"
"326968700875885","3","-0.48005384","1.3256582","9.65147","sit up","1"
"326968720791198","3","-0.47765836","1.3232627","9.685007","sit up","1"
"326968740703438","3","-0.44651714","1.2585849","9.766453","sit up","1"
"326968760610104","3","-0.46089","1.2442119","9.740103","sit up","1"
"326968780522344","3","-0.51119506","1.3687768","9.716147","sit up","1"
"326968800465677","3","-0.5303589","1.4478276","9.658657","sit up","1"
"326968820377969","3","-0.46807644","1.3280537","9.689797","sit up","1"
"326968840289583","3","-0.38183922","1.2849351","9.72573","sit up","1"
"326968860201875","3","-0.42016685","1.3663813","9.665843","sit up","1"
"326968880094323","3","-0.4273533","1.4813644","9.567629","sit up","1"
"326968900006563","3","-0.36507085","1.3064944","9.692194","sit up","1"
"326968919901979","3","-0.3626754","1.2202572","9.859877","sit up","1"
"326968939814219","3","-0.38902566","1.4669914","9.761662","sit up","1"
"326968959741146","3","-0.30757937","1.6059293","9.57721","sit up","1"
"326968979653385","3","-0.25727433","1.569997","9.558047","sit up","1"
"326968999572656","3","-0.32913867","1.4789689","9.682611","sit up","1"
"326969019465521","3","-0.36746633","1.3999181","9.768848","sit up","1"
"326969039377760","3","-0.295602","1.354404","9.737708","sit up","1"
"326969059294635","3","-0.12073207","1.2490029","9.764058","sit up","1"
"326969079206875","3","-0.111150086","1.3975226","9.663447","sit up","1"
"326969099114792","3","-0.14947778","1.569997","9.529301","sit up","1"
"326969119027031","3","-0.14229137","1.4837599","9.390363","sit up","1"
"326969138957396","3","-0.084799886","1.390336","9.524509","sit up","1"
"326969158869688","3","-0.10396367","1.4502231","9.689797","sit up","1"
"326969178748646","3","-0.15187329","1.4741778","9.723335","sit up","1"
