"Timestamp","Accuracy","Acceleration X","Acceleration Y","Acceleration Z","Label","Cycle"
"322816227995786","3","-0.5495227","-0.26014856","9.407132","none","0"
"322816247874068","3","-0.67648304","-0.40148178","10.073075","none","0"
"322816267800578","3","-0.6285735","-0.35836318","9.6562605","none","0"
"322816287684641","3","-0.6237825","-0.38231793","9.754476","none","0"
"322816307597505","3","-0.6381554","-0.34878126","9.749685","none","0"
"322816327531359","3","-0.6501328","-0.37034056","9.728126","none","0"
"322816347444172","3","-0.6165961","-0.36554965","9.754476","none","0"
"322816367356047","3","-0.6237825","-0.37034056","9.75208","none","0"
"322816387268911","3","-0.63336444","-0.35836318","9.754476","none","0"
"322816407170682","3","-0.63336444","-0.36075863","9.75208","none","0"
"322816427083495","3","-0.63336444","-0.36315414","9.744894","none","0"
"322816446994432","3","-0.63336444","-0.37273607","9.744894","none","0"
"322816466907245","3","-0.6381554","-0.37513152","9.756871","none","0"
"322816486811359","3","-0.64294636","-0.37034056","9.723335","none","0"
"322816506724172","3","-0.6453419","-0.37992254","9.756871","none","0"
"322816526635214","3","-0.6477373","-0.37513152","9.776035","none","0"
"322816546548130","3","-0.6501328","-0.36315414","9.749685","none","0"
"322816566471203","3","-0.64294636","-0.37513152","9.77364","none","0"
"322816586384016","3","-0.6405509","-0.37034056","9.759267","none","0"
"322816606280630","3","-0.6285735","-0.36315414","9.740103","none","0"
"322816626193495","3","-0.63336444","-0.36554965","9.740103","none","0"
"322816646100578","3","-0.63575995","-0.37034056","9.75208","none","0"
"322816666013495","3","-0.6453419","-0.36075863","9.766453","none","0"
"322816685923026","3","-0.63575995","-0.36794505","9.742498","none","0"
"322816705835891","3","-0.630969","-0.37513152","9.732917","none","0"
"322816725731984","3","-0.6285735","-0.36554965","9.74729","none","0"
"322816745644797","3","-0.6501328","-0.35596767","9.756871","none","0"
"322816765589745","3","-0.6405509","-0.36554965","9.766453","none","0"
"322816785502609","3","-0.6405509","-0.37034056","9.764058","none","0"
"322816805397401","3","-0.64294636","-0.37273607","9.742498","none","0"
"322816825310266","3","-0.630969","-0.36554965","9.749685","none","0"
"322816845216047","3","-0.63575995","-0.37034056","9.756871","none","0"
"322816865128911","3","-0.64294636","-0.36794505","9.744894","none","0"
"322816885042193","3","-0.630969","-0.36794505","9.749685","none","0"
"322816904955057","3","-0.626178","-0.37273607","9.761662","none","0"
"322816924849484","3","-0.6381554","-0.35836318","9.756871","none","0"
"322816944765161","3","-0.63575995","-0.38231793","9.749685","none","0"
"322816964684849","3","-0.6381554","-0.36794505","9.74729","none","0"
"322816984597714","3","-0.63336444","-0.35836318","9.756871","none","0"
"322817004502818","3","-0.6165961","-0.36315414","9.742498","none","0"
"322817024415682","3","-0.6189916","-0.35596767","9.732917","none","0"
"322817044328495","3","-0.6237825","-0.36554965","9.756871","none","0"
"322817064241359","3","-0.63336444","-0.38231793","9.749685","none","0"
"322817084153495","3","-0.6237825","-0.36315414","9.766453","none","0"
"322817104066359","3","-0.6285735","-0.35596767","9.742498","none","0"
"322817123983964","3","-0.62138706","-0.35596767","9.75208","none","0"
"322817143896828","3","-0.63336444","-0.37034056","9.75208","none","0"
"322817163818078","3","-0.630969","-0.37034056","9.744894","none","0"
"322817183730943","3","-0.630969","-0.36794505","9.74729","none","0"
"322817203632766","3","-0.63575995","-0.37992254","9.74729","none","0"
"322817223545578","3","-0.6237825","-0.37273607","9.74729","none","0"
"322817243461411","3","-0.6525283","-0.36554965","9.7353115","none","0"
"322817263374276","3","-0.6381554","-0.36315414","9.759267","none","0"
"322817283281203","3","-0.6381554","-0.37034056","9.77364","none","0"
"322817303194068","3","-0.63575995","-0.37034056","9.730521","none","0"
"322817323104380","3","-0.6381554","-0.36554965","9.744894","none","0"
"322817343017245","3","-0.6381554","-0.36794505","9.761662","none","0"
"322817362929484","3","-0.6285735","-0.37034056","9.754476","none","0"
"322817382842349","3","-0.6237825","-0.37034056","9.740103","none","0"
"322817402748234","3","-0.626178","-0.35357222","9.768848","none","0"
"322817422661099","3","-0.6477373","-0.36794505","9.764058","none","0"
"322817442583703","3","-0.6453419","-0.37273607","9.75208","none","0"
"322817462496516","3","-0.6285735","-0.37273607","9.744894","none","0"
"322817482398391","3","-0.63575995","-0.36794505","9.75208","none","0"
"322817502311203","3","-0.64294636","-0.37992254","9.744894","none","0"
"322817522230786","3","-0.6237825","-0.37273607","9.737708","none","0"
"322817542143703","3","-0.626178","-0.37034056","9.72573","none","0"
"322817562053703","3","-0.6405509","-0.37273607","9.756871","none","0"
"322817581966568","3","-0.63336444","-0.37034056","9.756871","none","0"
"322817601873807","3","-0.6237825","-0.36794505","9.749685","none","0"
"322817621786620","3","-0.630969","-0.36075863","9.74729","none","0"
"322817641703391","3","-0.6405509","-0.36794505","9.75208","none","0"
"322817661616307","3","-0.6381554","-0.38471344","9.744894","none","0"
"322817681527505","3","-0.62138706","-0.37513152","9.759267","none","0"
"322817701440370","3","-0.63336444","-0.36075863","9.759267","none","0"
"322817721358078","3","-0.65731925","-0.37273607","9.768848","none","0"
"322817741270943","3","-0.6597147","-0.37034056","9.768848","none","0"
"322817761179432","3","-0.6381554","-0.37273607","9.737708","none","0"
"322817781092297","3","-0.63336444","-0.37992254","9.730521","none","0"
"322817800987141","3","-0.6405509","-0.37034056","9.749685","none","0"
"322817820899953","3","-0.6381554","-0.36315414","9.728126","none","0"
"322817840826411","3","-0.626178","-0.37273607","9.74729","none","0"
"322817860739276","3","-0.63336444","-0.37992254","9.756871","none","0"
"322817880630891","3","-0.63575995","-0.36075863","9.7353115","none","0"
"322817900543755","3","-0.6094097","-0.37034056","9.740103","none","0"
"322817920454380","3","-0.630969","-0.37273607","9.742498","none","0"
"322817940367245","3","-0.6597147","-0.37513152","9.766453","none","0"
"322817960312401","3","-0.6381554","-0.37273607","9.742498","none","0"
"322817980225214","3","-0.6285735","-0.36794505","9.737708","none","0"
"322818000097089","3","-0.630969","-0.37273607","9.75208","none","0"
"322818020009901","3","-0.630969","-0.35836318","9.768848","none","0"
"322818039918807","3","-0.64294636","-0.36554965","9.75208","none","0"
"322818059831620","3","-0.63575995","-0.34638575","9.749685","none","0"
"322818079776776","3","-0.6405509","-0.35357222","9.754476","none","0"
"322818099689641","3","-0.6477373","-0.37752703","9.766453","none","0"
"322818119569120","3","-0.6165961","-0.36554965","9.74729","none","0"
"322818139481932","3","-0.626178","-0.35117677","9.761662","none","0"
"322818159391411","3","-0.626178","-0.35836318","9.744894","none","0"
"322818179304224","3","-0.6237825","-0.36554965","9.737708","none","0"
"322818199249589","3","-0.64294636","-0.37513152","9.756871","none","0"
"322818219162401","3","-0.630969","-0.36315414","9.744894","none","0"
"322818239041620","3","-0.6189916","-0.35836318","9.744894","none","0"
"322818258954484","3","-0.62138706","-0.37273607","9.7353115","none","0"
"322818278869068","3","-0.6501328","-0.36554965","9.75208","none","0"
"322818298781880","3","-0.630969","-0.35596767","9.759267","none","0"
"322818318725786","3","-0.6381554","-0.35596767","9.759267","none","0"
"322818338638599","3","-0.6237825","-0.37273607","9.742498","none","0"
"322818358516620","3","-0.6237825","-0.35357222","9.737708","none","0"
"322818378429432","3","-0.62138706","-0.37034056","9.749685","none","0"
"322818398337401","3","-0.6237825","-0.37034056","9.744894","none","0"
"322818418250266","3","-0.626178","-0.35836318","9.749685","none","0"
"322818438182557","3","-0.6285735","-0.36554965","9.749685","none","0"
"322818458095370","3","-0.6237825","-0.37752703","9.749685","none","0"
"322818477983911","3","-0.62138706","-0.35357222","9.742498","none","0"
"322818497896724","3","-0.630969","-0.36315414","9.728126","none","0"
"322818517805109","3","-0.63336444","-0.37992254","9.728126","none","0"
"322818537717922","3","-0.626178","-0.35836318","9.74729","none","0"
"322818557650109","3","-0.63575995","-0.36315414","9.74729","none","0"
"322818577562922","3","-0.6501328","-0.38231793","9.744894","none","0"
"322818597451672","3","-0.6285735","-0.37752703","9.75208","none","0"
"322818617364536","3","-0.61420065","-0.37513152","9.740103","none","0"
"322818637308755","3","-0.6405509","-0.36554965","9.761662","none","0"
"322818657221568","3","-0.63575995","-0.36554965","9.768848","none","0"
"322818677131255","3","-0.6501328","-0.37752703","9.749685","none","0"
"322818697044068","3","-0.6453419","-0.35836318","9.737708","none","0"
"322818716958859","3","-0.6285735","-0.37273607","9.759267","none","0"
"322818736871672","3","-0.63575995","-0.36794505","9.768848","none","0"
"322818756781932","3","-0.63575995","-0.3871089","9.749685","none","0"
"322818776694745","3","-0.6453419","-0.36554965","9.74729","none","0"
"322818796605786","3","-0.63336444","-0.36794505","9.749685","none","0"
"322818816518599","3","-0.62138706","-0.36794505","9.75208","none","0"
"322818836429641","3","-0.626178","-0.38471344","9.756871","none","0"
"322818856342453","3","-0.6381554","-0.36554965","9.74729","none","0"
"322818876236307","3","-0.6405509","-0.37752703","9.744894","none","0"
"322818896149120","3","-0.6381554","-0.37992254","9.761662","none","0"
"322818916079693","3","-0.6189916","-0.36554965","9.713753","none","0"
"322818935992505","3","-0.6237825","-0.36554965","9.720939","none","0"
"322818955907297","3","-0.64294636","-0.35357222","9.744894","none","0"
"322818975820109","3","-0.6285735","-0.36794505","9.75208","none","0"
"322818995730786","3","-0.6453419","-0.37034056","9.759267","none","0"
"322819015643391","3","-0.63336444","-0.36794505","9.740103","none","0"
"322819035555943","3","-0.63336444","-0.36554965","9.75208","none","0"
"322819055468547","3","-0.6285735","-0.37034056","9.756871","none","0"
"322819075382141","3","-0.6285735","-0.36794505","9.723335","none","0"
"322819095294797","3","-0.6381554","-0.36794505","9.737708","none","0"
"322819115194328","3","-0.6285735","-0.36075863","9.72573","none","0"
"322819135106932","3","-0.630969","-0.35596767","9.737708","none","0"
"322819155002036","3","-0.63336444","-0.37273607","9.723335","none","0"
"322819174914641","3","-0.630969","-0.35357222","9.759267","none","0"
"322819194844901","3","-0.6285735","-0.36794505","9.742498","none","0"
"322819214757505","3","-0.6381554","-0.38471344","9.742498","none","0"
"322819234666516","3","-0.626178","-0.37513152","9.74729","none","0"
"322819254579172","3","-0.63575995","-0.36554965","9.75208","none","0"
"322819274502505","3","-0.6453419","-0.37752703","9.761662","none","0"
"322819294415109","3","-0.6453419","-0.37513152","9.744894","none","0"
"322819314325578","3","-0.6477373","-0.37513152","9.742498","none","0"
"322819334238234","3","-0.6285735","-0.37513152","9.749685","none","0"
"322819354132609","3","-0.626178","-0.35836318","9.759267","none","0"
"322819374045266","3","-0.6501328","-0.37034056","9.759267","none","0"
"322819393975266","3","-0.6285735","-0.36315414","9.766453","none","0"
"322819413887870","3","-0.6405509","-0.37513152","9.740103","none","0"
"322819433801568","3","-0.630969","-0.37992254","9.742498","none","0"
"322819453714224","3","-0.63575995","-0.37034056","9.754476","none","0"
"322819473635109","3","-0.6285735","-0.35596767","9.759267","none","0"
"322819493547766","3","-0.64294636","-0.37752703","9.768848","none","0"
"322819513457609","3","-0.6381554","-0.37034056","9.764058","none","0"
"322819533370214","3","-0.6285735","-0.36794505","9.75208","none","0"
"322819553283026","3","-0.62138706","-0.36315414","9.744894","none","0"
"322819573195630","3","-0.630969","-0.35596767","9.749685","none","0"
"322819593100839","3","-0.6381554","-0.36794505","9.74729","none","0"
"322819613013495","3","-0.630969","-0.37273607","9.75208","none","0"
"322819632935005","3","-0.63575995","-0.36794505","9.75208","none","0"
"322819652847609","3","-0.6285735","-0.37513152","9.74729","none","0"
"322819672760526","3","-0.63336444","-0.35836318","9.740103","none","0"
"322819692673130","3","-0.6381554","-0.35836318","9.761662","none","0"
"322819712575214","3","-0.6381554","-0.36315414","9.771244","none","0"
"322819732487870","3","-0.6405509","-0.37034056","9.77364","none","0"
"322819752412297","3","-0.630969","-0.37273607","9.742498","none","0"
"322819772324901","3","-0.62138706","-0.37273607","9.756871","none","0"
"322819792240474","3","-0.6237825","-0.36315414","9.754476","none","0"
"322819812153130","3","-0.6381554","-0.37992254","9.740103","none","0"
"322819832062505","3","-0.6405509","-0.36794505","9.754476","none","0"
"322819851975161","3","-0.63575995","-0.36794505","9.754476","none","0"
"322819871897922","3","-0.64294636","-0.37752703","9.74729","none","0"
"322819891810526","3","-0.6501328","-0.37273607","9.778431","none","0"
"322819911727245","3","-0.630969","-0.37034056","9.754476","none","0"
"322819931639901","3","-0.6501328","-0.37513152","9.766453","none","0"
"322819951565057","3","-0.6285735","-0.37034056","9.768848","none","0"
"322819971477661","3","-0.630969","-0.37034056","9.74729","none","0"
"322819991384693","3","-0.6405509","-0.36794505","9.756871","none","0"
"322820011297297","3","-0.63575995","-0.37752703","9.749685","none","0"
"322820031216828","3","-0.6381554","-0.37513152","9.766453","none","0"
"322820051129589","3","-0.63336444","-0.36315414","9.766453","none","0"
"322820071067766","3","-0.63336444","-0.36075863","9.759267","none","0"
"322820090980526","3","-0.630969","-0.35596767","9.74729","none","0"
"322820110876047","3","-0.61420065","-0.36075863","9.754476","none","0"
"322820130788807","3","-0.6285735","-0.37273607","9.749685","none","0"
"322820150692349","3","-0.6381554","-0.37034056","9.756871","none","0"
"322820170605109","3","-0.64294636","-0.36554965","9.749685","none","0"
"322820190524224","3","-0.6405509","-0.37513152","9.768848","none","0"
"322820210436984","3","-0.6285735","-0.36075863","9.761662","none","0"
"322820230360161","3","-0.63336444","-0.35357222","9.749685","sit down","0"
"322820250272870","3","-0.6237825","-0.36554965","9.761662","sit down","0"
"322820270191307","3","-0.630969","-0.37752703","9.771244","sit down","0"
"322820290104068","3","-0.6405509","-0.37034056","9.75208","sit down","0"
"322820310007974","3","-0.62138706","-0.36554965","9.742498","sit down","0"
"322820329920734","3","-0.6381554","-0.36794505","9.74729","sit down","0"
"322820349860161","3","-0.63575995","-0.37513152","9.749685","sit down","0"
"322820369764901","3","-0.63575995","-0.36554965","9.749685","sit down","0"
"322820389677661","3","-0.626178","-0.36315414","9.768848","sit down","0"
"322820409600734","3","-0.6525283","-0.36794505","9.754476","sit down","0"
"322820429513495","3","-0.63575995","-0.37752703","9.737708","sit down","0"
"322820449428807","3","-0.626178","-0.38471344","9.759267","sit down","0"
"322820469341568","3","-0.630969","-0.37273607","9.742498","sit down","0"
"322820489256255","3","-0.64294636","-0.36315414","9.742498","sit down","0"
"322820509168964","3","-0.63336444","-0.36315414","9.756871","sit down","0"
"322820529081151","3","-0.63575995","-0.37034056","9.742498","sit down","0"
"322820548993911","3","-0.6405509","-0.36315414","9.756871","sit down","0"
"322820568912661","3","-0.6285735","-0.36554965","9.744894","sit down","0"
"322820588825422","3","-0.626178","-0.35836318","9.75208","sit down","0"
"322820608733182","3","-0.63336444","-0.36554965","9.754476","sit down","0"
"322820628645943","3","-0.62138706","-0.36794505","9.75208","sit down","0"
"322820648561724","3","-0.630969","-0.35596767","9.759267","sit down","0"
"322820668474484","3","-0.630969","-0.36554965","9.749685","sit down","0"
"322820688384745","3","-0.63336444","-0.37273607","9.756871","sit down","0"
"322820708297453","3","-0.630969","-0.37034056","9.756871","sit down","0"
"322820728216047","3","-0.626178","-0.37513152","9.737708","sit down","0"
"322820748128807","3","-0.63575995","-0.37752703","9.768848","sit down","0"
"322820768022089","3","-0.64294636","-0.36075863","9.75208","sit down","0"
"322820787934849","3","-0.630969","-0.37034056","9.749685","sit down","0"
"322820807866151","3","-0.63575995","-0.36554965","9.764058","sit down","0"
"322820827778911","3","-0.630969","-0.36794505","9.75208","sit down","0"
"322820847657766","3","-0.63575995","-0.36315414","9.7353115","sit down","0"
"322820867570526","3","-0.6285735","-0.36315414","9.744894","sit down","0"
"322820887492818","3","-0.630969","-0.35117677","9.74729","sit down","0"
"322820907405526","3","-0.64294636","-0.37513152","9.744894","sit down","0"
"322820927320578","3","-0.626178","-0.36315414","9.7353115","sit down","0"
"322820947233339","3","-0.6381554","-0.35836318","9.744894","sit down","0"
"322820967141672","3","-0.6285735","-0.37992254","9.77364","sit down","0"
"322820987054380","3","-0.63575995","-0.37273607","9.728126","sit down","0"
"322821006950318","3","-0.6405509","-0.35836318","9.759267","sit down","0"
"322821026863026","3","-0.6405509","-0.36794505","9.7353115","sit down","0"
"322821046806672","3","-0.63575995","-0.36794505","9.72573","sit down","0"
"322821066719432","3","-0.6381554","-0.36554965","9.737708","sit down","0"
"322821086602870","3","-0.626178","-0.36554965","9.74729","sit down","0"
"322821106515630","3","-0.59264135","-0.38471344","9.720939","sit down","0"
"322821126432453","3","-0.6908559","-0.34638575","9.790408","sit down","0"
"322821146345109","3","-0.61420065","-0.32961747","9.835922","sit down","0"
"322821166252453","3","-0.6621102","-0.42064562","9.704171","sit down","0"
"322821186165214","3","-0.6046187","-0.39908633","9.644284","sit down","0"
"322821206074016","3","-0.6405509","-0.3080581","9.79999","sit down","0"
"322821225986828","3","-0.68127406","-0.35596767","9.833527","sit down","0"
"322821245897661","3","-0.62138706","-0.40148178","9.704171","sit down","0"
"322821265810422","3","-0.65731925","-0.37992254","9.72573","sit down","0"
"322821285741047","3","-0.6094097","-0.35596767","9.804781","sit down","0"
"322821305653807","3","-0.6525283","-0.3895044","9.704171","sit down","0"
"322821325576255","3","-0.59743226","-0.37513152","9.716147","sit down","0"
"322821345489016","3","-0.7196017","-0.33201286","9.790408","sit down","0"
"322821365385786","3","-0.5303589","-0.33680388","9.804781","sit down","0"
"322821385298495","3","-0.59024584","-0.3871089","9.6562605","sit down","0"
"322821405222193","3","-0.68127406","-0.39669082","9.771244","sit down","0"
"322821425134849","3","-0.6525283","-0.36315414","9.790408","sit down","0"
"322821445022297","3","-0.6453419","-0.36075863","9.701775","sit down","0"
"322821464935005","3","-0.571082","-0.36075863","9.768848","sit down","0"
"322821484846880","3","-0.6669012","-0.36794505","9.797595","sit down","0"
"322821504759589","3","-0.6405509","-0.37034056","9.694589","sit down","0"
"322821524691568","3","-0.630969","-0.37992254","9.69938","sit down","0"
"322821544604276","3","-0.630969","-0.35117677","9.766453","sit down","0"
"322821564512141","3","-0.6525283","-0.35596767","9.797595","sit down","0"
"322821584424849","3","-0.626178","-0.36794505","9.69938","sit down","0"
"322821604327766","3","-0.63336444","-0.38231793","9.730521","sit down","0"
"322821624240474","3","-0.6094097","-0.35596767","9.811967","sit down","0"
"322821644183599","3","-0.6405509","-0.36075863","9.790408","sit down","0"
"322821664096307","3","-0.6477373","-0.3918999","9.687403","sit down","0"
"322821683976099","3","-0.6165961","-0.37992254","9.689797","sit down","0"
"322821703888807","3","-0.64294636","-0.36315414","9.759267","sit down","0"
"322821723802609","3","-0.626178","-0.36554965","9.795198","sit down","0"
"322821743715266","3","-0.67648304","-0.35596767","9.754476","sit down","0"
"322821763627453","3","-0.6956469","-0.37752703","9.764058","sit down","0"
"322821783540109","3","-0.69325143","-0.39908633","9.744894","sit down","0"
"322821803454016","3","-0.5567092","-0.38471344","9.69938","sit down","0"
"322821823366776","3","-0.85614395","-0.34878126","9.7089615","sit down","0"
"322821843306984","3","-0.49682218","-0.33919933","9.776035","sit down","0"
"322821863219693","3","-0.68606496","-0.37513152","9.7353115","sit down","0"
"322821883137870","3","-0.71001977","-0.35836318","9.754476","sit down","0"
"322821903050578","3","-0.7339746","-0.39669082","9.732917","sit down","0"
"322821922931359","3","-0.6381554","-0.432623","9.685007","sit down","0"
"322821942844068","3","-0.6501328","-0.4134592","9.663447","sit down","0"
"322821962792974","3","-0.7076243","-0.37273607","9.706566","sit down","0"
"322821982705630","3","-0.796257","-0.33201286","9.692194","sit down","0"
"322822002617141","3","-0.69325143","-0.32482645","9.689797","sit down","0"
"322822022529797","3","-0.5495227","-0.37992254","9.701775","sit down","0"
"322822042441307","3","-0.626178","-0.44460037","9.732917","sit down","0"
"322822062353964","3","-0.5734775","-0.37513152","9.744894","sit down","0"
"322822082264224","3","-0.5806639","-0.3080581","9.835922","sit down","0"
"322822102176880","3","-0.8082344","-0.37034056","9.675425","sit down","0"
"322822122090474","3","-0.39621207","-0.3895044","9.613143","sit down","0"
"322822142003130","3","-0.27883366","-0.3918999","10.039537","sit down","0"
"322822161876047","3","-0.65492374","-0.49730095","9.986836","sit down","0"
"322822181788755","3","-0.3051839","-0.45897326","10.070679","sit down","0"
"322822201702714","3","-0.36746633","-0.37992254","10.070679","sit down","0"
"322822221615370","3","-0.47526285","-0.24338022","9.764058","sit down","0"
"322822241556672","3","-0.3722573","-0.094860554","9.402341","sit down","0"
"322822261469328","3","-0.0919863","-0.2936853","9.653866","sit down","0"
"322822281379120","3","-0.73157907","-0.48292807","10.027561","sit down","0"
"322822301291776","3","-1.2178612","-0.3942953","9.780826","sit down","0"
"322822321204120","3","-1.1459968","-0.34878126","9.519719","sit down","0"
"322822341116776","3","-0.94477665","-0.39908633","9.519719","sit down","0"
"322822361013495","3","-0.9088445","-0.39669082","9.541278","sit down","0"
"322822380926203","3","-1.0477822","-0.39669082","9.529301","sit down","0"
"322822400857089","3","-1.1531833","-0.44699588","9.639493","sit down","0"
"322822420769797","3","-1.1148556","-0.49490544","9.807176","sit down","0"
"322822440657922","3","-1.0142455","-0.47574165","9.924555","sit down","0"
"322822460570578","3","-0.8681213","-0.4493914","9.895809","sit down","0"
"322822480480318","3","-0.99508166","-0.46136877","9.768848","sit down","0"
"322822500393026","3","-1.0741324","-0.45178685","9.653866","sit down","0"
"322822520327974","3","-1.0645506","-0.432623","9.759267","sit down","0"
"322822540240630","3","-1.0429913","-0.4254366","9.821548","sit down","0"
"322822560140578","3","-0.99029076","-0.43980947","9.720939","sit down","0"
"322822580053286","3","-0.93759024","-0.45178685","9.610746","sit down","0"
"322822599956203","3","-0.8369801","-0.432623","9.713753","sit down","0"
"322822619868911","3","-0.7555339","-0.3918999","9.759267","sit down","0"
"322822639802609","3","-0.82021177","-0.40627274","9.723335","sit down","0"
"322822659715318","3","-0.8824942","-0.43741396","9.809572","sit down","0"
"322822679610370","3","-0.8896806","-0.42304108","9.862272","sit down","0"
"322822699523130","3","-0.846562","-0.432623","9.720939","sit down","0"
"322822719436099","3","-0.82739824","-0.43980947","9.57242","sit down","0"
"322822739348859","3","-0.7938615","-0.37992254","9.536487","sit down","0"
"322822759282141","3","-0.8441666","-0.3439903","9.687403","sit down","0"
"322822779194797","3","-0.95196307","-0.37992254","9.65147","sit down","0"
"322822799086203","3","-0.96633595","-0.43741396","9.649075","sit down","0"
"322822818998964","3","-0.99508166","-0.5188602","9.771244","sit down","0"
"322822838949380","3","-1.1292286","-0.45657775","9.749685","sit down","0"
"322822858862089","3","-1.1052737","-0.36315414","9.692194","sit down","0"
"322822878771568","3","-1.0094546","-0.432623","9.740103","sit down","0"
"322822898684276","3","-1.0334094","-0.4493914","9.749685","sit down","0"
"322822918565995","3","-1.0597596","-0.43980947","9.730521","sit down","0"
"322822938478703","3","-0.90165806","-0.4038773","9.696984","sit down","0"
"322822958419953","3","-0.89207613","-0.44220492","9.670634","sit down","0"
"322822978332609","3","-0.99508166","-0.5164647","9.778431","sit down","0"
"322822998251099","3","-1.1507878","-0.5452105","9.847899","sit down","0"
"322823018163807","3","-1.1172512","-0.47574165","9.759267","sit down","0"
"322823038040526","3","-1.0070591","-0.3942953","9.792804","sit down","0"
"322823057953182","3","-0.95914954","-0.34878126","9.809572","sit down","0"
"322823077863130","3","-0.96873146","-0.36315414","9.723335","sit down","0"
"322823097775891","3","-0.9926863","-0.42064562","9.689797","sit down","0"
"322823117721984","3","-1.0358049","-0.45657775","9.728126","sit down","0"
"322823137634693","3","-1.0334094","-0.432623","9.728126","sit down","0"
"322823157516464","3","-1.0286185","-0.4182501","9.692194","sit down","0"
"322823177429172","3","-0.9543586","-0.4541823","9.649075","sit down","0"
"322823197345474","3","-0.8226073","-0.4254366","9.72573","sit down","0"
"322823217258182","3","-0.78188413","-0.432623","9.737708","sit down","0"
"322823237201932","3","-0.94717216","-0.4254366","9.75208","sit down","0"
"322823257114797","3","-0.9759179","-0.4182501","9.692194","sit down","0"
"322823276997141","3","-0.9783133","-0.4302275","9.69938","sit down","0"
"322823296909953","3","-0.846562","-0.4134592","9.670634","sit down","0"
"322823316821932","3","-0.82500273","-0.3918999","9.728126","sit down","0"
"322823336734797","3","-0.846562","-0.41585466","9.72573","sit down","0"
"322823356667922","3","-0.9543586","-0.43980947","9.663447","sit down","0"
"322823376580734","3","-0.94717216","-0.4350185","9.720939","sit down","0"
"322823396478755","3","-0.9208219","-0.42304108","9.737708","sit down","0"
"322823416391568","3","-0.93519473","-0.4134592","9.677821","sit down","0"
"322823436305891","3","-0.9495676","-0.41585466","9.687403","sit down","0"
"322823456218703","3","-0.9639405","-0.44460037","9.77364","sit down","0"
"322823476167609","3","-0.93759024","-0.45178685","9.768848","sit down","0"
"322823496080422","3","-0.96633595","-0.43741396","9.756871","sit down","0"
"322823515965734","3","-0.9495676","-0.4278321","9.740103","sit down","0"
"322823535878547","3","-0.95196307","-0.4182501","9.768848","sit down","0"
"322823555824120","3","-0.93759024","-0.4350185","9.74729","sit down","0"
"322823575736932","3","-0.9184264","-0.43980947","9.706566","sit down","0"
"322823595648964","3","-0.92321736","-0.41585466","9.749685","sit down","0"
"322823615561776","3","-0.9256128","-0.41585466","9.754476","sit down","0"
"322823635474953","3","-0.93040377","-0.4182501","9.720939","sit down","0"
"322823655387766","3","-0.89926255","-0.4278321","9.728126","sit down","0"
"322823675300839","3","-0.8968671","-0.4302275","9.730521","sit down","0"
"322823695213651","3","-0.906449","-0.42304108","9.704171","sit down","0"
"322823715128391","3","-0.9280083","-0.42064562","9.69938","sit down","0"
"322823735041203","3","-0.95196307","-0.42304108","9.694589","sit down","0"
"322823754958807","3","-0.9208219","-0.42304108","9.706566","sit down","0"
"322823774871620","3","-0.91363543","-0.4350185","9.718544","sit down","0"
"322823794786880","3","-0.9280083","-0.4302275","9.713753","sit down","0"
"322823814699693","3","-0.93759024","-0.43741396","9.713753","sit down","0"
"322823834585005","3","-0.94238114","-0.43741396","9.756871","sit down","0"
"322823854497870","3","-0.9327993","-0.43980947","9.761662","sit down","0"
"322823874438130","3","-0.94477665","-0.432623","9.754476","sit down","0"
"322823894350943","3","-0.9567541","-0.4278321","9.7353115","sit down","0"
"322823914241151","3","-0.98310435","-0.4350185","9.75208","sit down","0"
"322823934154016","3","-0.9567541","-0.4278321","9.74729","sit down","0"
"322823954091411","3","-0.9399857","-0.42064562","9.723335","sit down","0"
"322823974004224","3","-0.94238114","-0.4254366","9.720939","sit down","0"
"322823993915161","3","-0.94238114","-0.4182501","9.713753","sit down","0"
"322824013827974","3","-0.9208219","-0.42304108","9.756871","sit down","0"
"322824033736932","3","-0.9040535","-0.4350185","9.754476","sit down","0"
"322824053649745","3","-0.89447165","-0.4278321","9.737708","sit down","0"
"322824073560318","3","-0.91603094","-0.4182501","9.7089615","sit down","0"
"322824093465786","3","-0.94717216","-0.4254366","9.701775","sit down","0"
"322824113383599","3","-0.94238114","-0.432623","9.756871","sit down","0"
"322824133296464","3","-0.93040377","-0.4134592","9.72573","sit down","0"
"322824153212922","3","-0.9280083","-0.4254366","9.713753","sit down","0"
"322824173125786","3","-0.95196307","-0.4254366","9.7089615","sit down","0"
"322824193040318","3","-0.9495676","-0.4278321","9.720939","sit down","0"
"322824212953130","3","-0.9495676","-0.4182501","9.742498","sit down","0"
"322824232871464","3","-0.93040377","-0.42304108","9.7353115","lay down","0"
"322824252784276","3","-0.93519473","-0.4254366","9.730521","lay down","0"
"322824272681411","3","-0.94238114","-0.432623","9.706566","lay down","0"
"322824292594276","3","-0.93759024","-0.4350185","9.756871","lay down","0"
"322824312525109","3","-0.91363543","-0.4254366","9.754476","lay down","0"
"322824332437922","3","-0.90165806","-0.4278321","9.689797","lay down","0"
"322824352332609","3","-0.9184264","-0.4278321","9.689797","lay down","0"
"322824372245474","3","-0.94477665","-0.43980947","9.75208","lay down","0"
"322824392155682","3","-0.94238114","-0.44220492","9.759267","lay down","0"
"322824412068547","3","-0.93759024","-0.4254366","9.682611","lay down","0"
"322824432005943","3","-0.94477665","-0.42304108","9.692194","lay down","0"
"322824451918807","3","-0.9280083","-0.44460037","9.759267","lay down","0"
"322824471795578","3","-0.9184264","-0.44460037","9.732917","lay down","0"
"322824491708443","3","-0.9088445","-0.4350185","9.718544","lay down","0"
"322824511638495","3","-0.9327993","-0.432623","9.689797","lay down","0"
"322824531551307","3","-0.96633595","-0.43741396","9.7353115","lay down","0"
"322824551459849","3","-0.9543586","-0.44460037","9.776035","lay down","0"
"322824571372714","3","-0.93040377","-0.45178685","9.730521","lay down","0"
"322824591290839","3","-0.9088445","-0.45178685","9.720939","lay down","0"
"322824611203703","3","-0.96633595","-0.45178685","9.77364","lay down","0"
"322824631085318","3","-1.0070591","-0.4541823","9.759267","lay down","0"
"322824650998130","3","-0.9759179","-0.44460037","9.7880125","lay down","0"
"322824670945057","3","-0.94238114","-0.4134592","9.696984","lay down","0"
"322824690857922","3","-0.93519473","-0.39908633","9.613143","lay down","0"
"322824710739536","3","-0.9495676","-0.43741396","9.737708","lay down","0"
"322824730652349","3","-0.98789525","-0.45897326","9.744894","lay down","0"
"322824750565214","3","-0.961545","-0.4254366","9.713753","lay down","0"
"322824770478026","3","-0.961545","-0.432623","9.761662","lay down","0"
"322824790415474","3","-0.9040535","-0.42064562","9.7880125","lay down","0"
"322824810328286","3","-0.87770325","-0.4182501","9.730521","lay down","0"
"322824830249276","3","-0.94238114","-0.4254366","9.661052","lay down","0"
"322824850162089","3","-0.9711269","-0.36794505","9.661052","lay down","0"
"322824870053234","3","-0.9567541","-0.33201286","9.694589","lay down","0"
"322824889966099","3","-0.84895754","-0.37513152","9.720939","lay down","0"
"322824909914432","3","-0.6908559","-0.40627274","9.840713","lay down","0"
"322824929827297","3","-0.81302536","-0.4302275","9.871854","lay down","0"
"322824949713547","3","-0.9711269","-0.47813705","9.838318","lay down","0"
"322824969626411","3","-1.0429913","-0.46136877","9.665843","lay down","0"
"322824989540943","3","-1.0525732","-0.35357222","9.536487","lay down","0"
"322825009453755","3","-0.96873146","-0.33201286","9.668239","lay down","0"
"322825029397453","3","-0.82500273","-0.37273607","9.816758","lay down","0"
"322825049310266","3","-0.8441666","-0.44460037","9.816758","lay down","0"
"322825069200005","3","-0.8968671","-0.44220492","9.694589","lay down","0"
"322825089112870","3","-0.91363543","-0.38231793","9.69938","lay down","0"
"322825109023599","3","-0.8657259","-0.47095063","9.756871","lay down","0"
"322825128936411","3","-0.7866751","-0.46376422","9.778431","lay down","0"
"322825148873755","3","-0.79865247","-0.43741396","9.75208","lay down","0"
"322825168786620","3","-0.7124152","-0.41585466","9.802386","lay down","0"
"322825188683911","3","-0.6405509","-0.42304108","9.850295","lay down","0"
"322825208596776","3","-0.6692966","-0.37513152","9.852691","lay down","0"
"322825228542714","3","-0.89207613","-0.4086682","9.828736","lay down","0"
"322825248455526","3","-1.0693415","-0.5188602","9.567629","lay down","0"
"322825268366516","3","-1.1220421","-0.45657775","9.574815","lay down","0"
"322825288279328","3","-0.9711269","-0.33201286","9.730521","lay down","0"
"322825308197609","3","-0.9974772","-0.27212593","9.713753","lay down","0"
"322825328110422","3","-1.0549687","-0.30566266","9.538883","lay down","0"
"322825348021359","3","-1.1076692","-0.39908633","9.567629","lay down","0"
"322825367934172","3","-1.0142455","-0.37752703","9.7089615","lay down","0"
"322825387841672","3","-0.8729123","-0.26973042","9.809572","lay down","0"
"322825407754484","3","-0.7770932","-0.20984349","9.77364","lay down","0"
"322825427675422","3","-0.67887855","-0.11881533","9.728126","lay down","0"
"322825447588286","3","-0.65731925","-0.07569671","9.75208","lay down","0"
"322825467499953","3","-0.8537485","-0.14277011","9.706566","lay down","0"
"322825487412766","3","-1.0621551","-0.322431","9.649075","lay down","0"
"322825507322661","3","-1.1771381","-0.48532352","9.680216","lay down","0"
"322825527235474","3","-1.1340195","-0.52125573","9.7353115","lay down","0"
"322825547150682","3","-1.2154658","-0.49011448","9.644284","lay down","0"
"322825567063495","3","-1.2537935","-0.4996964","9.610746","lay down","0"
"322825586971203","3","-1.2729573","-0.6050974","9.790408","lay down","0"
"322825606884016","3","-1.1819291","-0.61707485","9.869459","lay down","0"
"322825626766672","3","-1.0190365","-0.48532352","9.874249","lay down","0"
"322825646679536","3","-0.8848897","-0.5500015","9.740103","lay down","0"
"322825666621776","3","-0.8369801","-0.5500015","9.649075","lay down","0"
"322825686534641","3","-0.80344343","-0.43741396","9.737708","lay down","0"
"322825706414016","3","-0.76032484","-0.46136877","9.79999","lay down","0"
"322825726326880","3","-0.74355644","-0.44220492","9.7880125","lay down","0"
"322825746240370","3","-0.73876554","-0.37752703","9.718544","lay down","0"
"322825766153234","3","-0.80344343","-0.36075863","9.644284","lay down","0"
"322825786084589","3","-0.851353","-0.35357222","9.60356","lay down","0"
"322825805997453","3","-0.8753078","-0.33680388","9.680216","lay down","0"
"322825825886307","3","-0.8154208","-0.3871089","9.778431","lay down","0"
"322825845799120","3","-0.91124","-0.4350185","9.694589","lay down","0"
"322825865748391","3","-1.0525732","-0.432623","9.570024","lay down","0"
"322825885661255","3","-1.2058839","-0.53083766","9.541278","lay down","0"
"322825905567609","3","-1.1483923","-0.57635164","9.644284","lay down","0"
"322825925480474","3","-1.0621551","-0.547606","9.864668","lay down","0"
"322825945357818","3","-0.94238114","-0.4350185","9.929346","lay down","0"
"322825965270682","3","-0.89447165","-0.47095063","9.685007","lay down","0"
"322825985183026","3","-0.76751125","-0.52365124","9.455041","lay down","0"
"322826005095891","3","-0.93759024","-0.48053256","9.696984","lay down","0"
"322826025042974","3","-1.1699517","-0.44460037","9.871854","lay down","0"
"322826044955839","3","-1.2226522","-0.41585466","9.852691","lay down","0"
"322826064863964","3","-1.292121","-0.35596767","9.888623","lay down","0"
"322826084776776","3","-1.352008","-0.36075863","9.855085","lay down","0"
"322826104661776","3","-1.306494","-0.3895044","9.661052","lay down","0"
"322826124574641","3","-1.1412059","-0.4278321","9.670634","lay down","0"
"322826144511672","3","-0.94238114","-0.32961747","9.749685","lay down","0"
"322826164424536","3","-0.94477665","-0.2936853","9.795198","lay down","0"
"322826184314224","3","-0.9926863","-0.29608074","9.637098","lay down","0"
"322826204227036","3","-1.136415","-0.3008717","9.5173235","lay down","0"
"322826224138651","3","-1.2298386","-0.36794505","9.593979","lay down","0"
"322826244051464","3","-1.2825391","-0.5619788","9.723335","lay down","0"
"322826264000422","3","-1.2034883","-0.56676984","9.646679","lay down","0"
"322826283913286","3","-0.9974772","-0.44460037","9.483787","lay down","0"
"322826303790786","3","-0.7842796","-0.40148178","9.582001","lay down","0"
"322826323703599","3","-0.82739824","-0.43741396","9.802386","lay down","0"
"322826343618755","3","-1.0980873","-0.40148178","9.821548","lay down","0"
"322826363531620","3","-1.2753527","-0.45657775","9.69938","lay down","0"
"322826383453859","3","-1.2729573","-0.49250993","9.704171","lay down","0"
"322826403366672","3","-1.2801437","-0.57874715","9.658657","lay down","0"
"322826423301464","3","-1.2322341","-0.602702","9.4909725","lay down","0"
"322826443214276","3","-1.1340195","-0.6961256","9.7089615","lay down","0"
"322826463099589","3","-1.1555787","-0.6889392","9.902996","lay down","0"
"322826483012401","3","-1.2753527","-0.6841483","9.641888","lay down","0"
"322826502959380","3","-1.2729573","-0.6865438","9.601165","lay down","0"
"322826522872193","3","-1.18672","-0.70570755","9.819154","lay down","0"
"322826542748807","3","-1.0573641","-0.6458206","9.895809","lay down","0"
"322826562661620","3","-1.0070591","-0.5188602","9.77364","lay down","0"
"322826582571984","3","-0.93519473","-0.5500015","9.768848","lay down","0"
"322826602484797","3","-0.9280083","-0.5500015","9.811967","lay down","0"
"322826622421932","3","-1.071737","-0.36315414","9.713753","lay down","0"
"322826642334693","3","-1.1651607","-0.20505258","9.62512","lay down","0"
"322826662221099","3","-1.2202567","-0.29128978","9.65147","lay down","0"
"322826682133911","3","-1.2394205","-0.41585466","9.859877","lay down","0"
"322826702048026","3","-1.2034883","-0.43741396","10.039537","lay down","0"
"322826721960839","3","-1.3663809","-0.45897326","9.994024","lay down","0"
"322826741892714","3","-1.6538383","-0.58114266","9.845504","lay down","0"
"322826761805526","3","-1.6658156","-0.5931201","9.761662","lay down","0"
"322826781721776","3","-1.5508327","-0.5955156","9.840713","lay down","0"
"322826801634589","3","-1.4645956","-0.6937301","9.941323","lay down","0"
"322826821547922","3","-1.3400307","-0.66977537","9.730521","lay down","0"
"322826841460734","3","-1.2585844","-0.5955156","9.471808","lay down","0"
"322826861371672","3","-1.2034883","-0.6338432","9.601165","lay down","0"
"322826881284484","3","-1.1436014","-0.6937301","9.617934","lay down","0"
"322826901185005","3","-1.0382004","-0.70810306","9.488578","lay down","0"
"322826921097818","3","-0.9256128","-0.6122838","9.500555","lay down","0"
"322826941021099","3","-0.8441666","-0.5068828","9.589188","lay down","0"
"322826960933911","3","-0.9208219","-0.4996964","9.670634","lay down","0"
"322826980845891","3","-1.0358049","-0.53323317","9.701775","lay down","0"
"322827000758651","3","-1.0118501","-0.52365124","9.649075","lay down","0"
"322827020672453","3","-0.95914954","-0.43980947","9.622725","lay down","0"
"322827040585266","3","-1.031014","-0.38231793","9.730521","lay down","0"
"322827060495891","3","-1.1436014","-0.37273607","9.804781","lay down","0"
"322827080408703","3","-1.1292286","-0.41585466","9.754476","lay down","0"
"322827100323078","3","-0.99029076","-0.52604675","9.639493","lay down","0"
"322827120235891","3","-0.9040535","-0.58114266","9.59877","lay down","0"
"322827140145057","3","-0.9256128","-0.53083766","9.696984","lay down","0"
"322827160057870","3","-0.9974772","-0.52844214","9.857482","lay down","0"
"322827179964693","3","-1.0046636","-0.5092783","9.783222","lay down","0"
"322827199877453","3","-0.9926863","-0.5068828","9.639493","lay down","0"
"322827219791724","3","-0.94717216","-0.5140693","9.634702","lay down","0"
"322827239704484","3","-0.961545","-0.5164647","9.694589","lay down","0"
"322827259620057","3","-1.0238274","-0.52125573","9.720939","lay down","0"
"322827279532870","3","-1.0477822","-0.49250993","9.749685","lay down","0"
"322827299418286","3","-1.0238274","-0.47334614","9.795198","lay down","0"
"322827319331047","3","-0.98310435","-0.49250993","9.723335","lay down","0"
"322827339236568","3","-0.92321736","-0.547606","9.6562605","lay down","0"
"322827359149380","3","-0.93040377","-0.54041946","9.668239","lay down","0"
"322827379063419","3","-0.9543586","-0.52365124","9.682611","lay down","0"
"322827398976231","3","-1.0070591","-0.5140693","9.711357","lay down","0"
"322827418910502","3","-1.0429913","-0.52604675","9.761662","lay down","0"
"322827438823314","3","-1.0453868","-0.53323317","9.756871","lay down","0"
"322827458711075","3","-1.0429913","-0.53802407","9.766453","lay down","0"
"322827478623679","3","-1.0549687","-0.53323317","9.776035","lay down","0"
"322827498534200","3","-1.0789235","-0.5140693","9.809572","lay down","0"
"322827518446804","3","-1.0501777","-0.49490544","9.754476","lay down","0"
"322827538378210","3","-1.016641","-0.48292807","9.723335","lay down","0"
"322827558290814","3","-0.9926863","-0.45657775","9.744894","lay down","0"
"322827578184096","3","-1.0022681","-0.48532352","9.716147","lay down","0"
"322827598096700","3","-1.0022681","-0.49730095","9.646679","lay down","0"
"322827618004356","3","-0.98310435","-0.5044874","9.696984","lay down","0"
"322827637916960","3","-0.9735224","-0.5068828","9.689797","lay down","0"
"322827657861491","3","-0.9783133","-0.49730095","9.649075","lay down","0"
"322827677774096","3","-0.9543586","-0.52365124","9.665843","lay down","0"
"322827697656544","3","-0.9854998","-0.52844214","9.72573","lay down","0"
"322827717569148","3","-1.0046636","-0.53802407","9.711357","lay down","0"
"322827737479252","3","-1.0238274","-0.547606","9.713753","lay down","0"
"322827757391856","3","-1.0334094","-0.54281497","9.756871","lay down","0"
"322827777311804","3","-1.0477822","-0.52844214","9.759267","lay down","0"
"322827797224408","3","-1.0645506","-0.5140693","9.754476","lay down","0"
"322827817151231","3","-1.066946","-0.5044874","9.778431","lay down","0"
"322827837063835","3","-1.066946","-0.48532352","9.718544","lay down","0"
"322827856963419","3","-1.0453868","-0.47095063","9.7353115","lay down","0"
"322827876876023","3","-0.9974772","-0.46855518","9.732917","lay down","0"
"322827896780710","3","-0.9854998","-0.48292807","9.67303","lay down","0"
"322827916693314","3","-0.99508166","-0.49730095","9.663447","lay down","0"
"322827936613835","3","-0.9974772","-0.5068828","9.694589","lay down","0"
"322827956526387","3","-0.98789525","-0.5092783","9.685007","lay down","0"
"322827976427325","3","-0.98789525","-0.53802407","9.706566","lay down","0"
"322827996339929","3","-0.99508166","-0.52844214","9.74729","lay down","0"
"322828016256387","3","-1.0214319","-0.52365124","9.740103","lay down","0"
"322828036176335","3","-1.026223","-0.5116738","9.74729","lay down","0"
"322828056088939","3","-1.0190365","-0.52365124","9.744894","lay down","0"
"322828076004616","3","-1.0070591","-0.53323317","9.749685","lay down","0"
"322828095917169","3","-1.0238274","-0.5188602","9.737708","lay down","0"
"322828115852846","3","-1.0094546","-0.52844214","9.718544","lay down","0"
"322828135765502","3","-1.0070591","-0.5164647","9.7353115","lay down","0"
"322828155659721","3","-1.0046636","-0.48771903","9.730521","lay down","0"
"322828175572273","3","-1.0070591","-0.48292807","9.723335","lay down","0"
"322828195486439","3","-1.0118501","-0.5020919","9.711357","lay down","0"
"322828215399044","3","-1.0046636","-0.52125573","9.728126","lay down","0"
"322828235321179","3","-0.99029076","-0.5044874","9.7089615","sit up","0"
"322828255233783","3","-1.0190365","-0.5020919","9.716147","sit up","0"
"322828275128419","3","-1.016641","-0.5044874","9.720939","sit up","0"
"322828295041023","3","-1.0214319","-0.5164647","9.701775","sit up","0"
"322828314954460","3","-1.0286185","-0.53083766","9.72573","sit up","0"
"322828334867064","3","-1.0142455","-0.5188602","9.7353115","sit up","0"
"322828354805241","3","-1.0094546","-0.5116738","9.732917","sit up","0"
"322828374717846","3","-1.0046636","-0.5188602","9.737708","sit up","0"
"322828394608731","3","-1.0022681","-0.49250993","9.694589","sit up","0"
"322828414521335","3","-1.0118501","-0.49730095","9.682611","sit up","0"
"322828434433679","3","-1.0022681","-0.5092783","9.718544","sit up","0"
"322828454346283","3","-1.0190365","-0.5188602","9.732917","sit up","0"
"322828474265971","3","-1.016641","-0.5188602","9.701775","sit up","0"
"322828494178575","3","-1.0046636","-0.5116738","9.713753","sit up","0"
"322828514118210","3","-1.016641","-0.5092783","9.713753","sit up","0"
"322828534030762","3","-1.0190365","-0.5044874","9.723335","sit up","0"
"322828553929929","3","-0.99508166","-0.48771903","9.737708","sit up","0"
"322828573842481","3","-0.9998727","-0.48292807","9.65147","sit up","0"
"322828593771596","3","-1.066946","-0.5188602","9.560442","sit up","0"
"322828613684148","3","-1.0741324","-0.5140693","9.661052","sit up","0"
"322828633599616","3","-1.1196465","-0.5523969","9.766453","sit up","0"
"322828653512169","3","-1.1292286","-0.61707485","9.718544","sit up","0"
"322828673428002","3","-1.0525732","-0.6003065","9.675425","sit up","0"
"322828693340554","3","-0.9759179","-0.5044874","9.72573","sit up","0"
"322828713254721","3","-1.0525732","-0.47813705","9.778431","sit up","0"
"322828733167273","3","-1.1076692","-0.4110637","9.740103","sit up","0"
"322828753080971","3","-1.031014","-0.52604675","9.756871","sit up","0"
"322828772993523","3","-0.9735224","-0.5500015","9.807176","sit up","0"
"322828792908054","3","-0.9567541","-0.49730095","9.742498","sit up","0"
"322828812820606","3","-1.0142455","-0.49730095","9.79999","sit up","0"
"322828832738731","3","-1.131624","-0.53562856","9.871854","sit up","0"
"322828852651283","3","-1.1723471","-0.547606","9.821548","sit up","0"
"322828872545398","3","-1.1244376","-0.5116738","9.69938","sit up","0"
"322828892457950","3","-1.031014","-0.5164647","9.661052","sit up","0"
"322828912394096","3","-1.0094546","-0.48292807","9.713753","sit up","0"
"322828932306648","3","-0.9639405","-0.4278321","9.797595","sit up","0"
"322828952223991","3","-0.96873146","-0.4302275","9.72573","sit up","0"
"322828972136544","3","-0.9926863","-0.44220492","9.562838","sit up","0"
"322828992021804","3","-1.0525732","-0.5116738","9.637098","sit up","0"
"322829011934356","3","-1.1891155","-0.52604675","9.742498","sit up","0"
"322829031874669","3","-1.0214319","-0.6314477","9.694589","sit up","0"
"322829051787585","3","-0.906449","-0.6266568","9.6562605","sit up","0"
"322829071707585","3","-0.99029076","-0.5547924","9.67303","sit up","0"
"322829091620450","3","-1.0453868","-0.57395625","9.713753","sit up","0"
"322829111509721","3","-1.026223","-0.5835382","9.720939","sit up","0"
"322829131422637","3","-0.89447165","-0.5044874","9.761662","sit up","0"
"322829151361960","3","-0.67169213","-0.432623","9.720939","sit up","0"
"322829171256491","3","-0.630969","-0.38471344","9.720939","sit up","0"
"322829191169356","3","-0.65731925","-0.31764004","9.728126","sit up","0"
"322829211081648","3","-0.77469766","-0.31284907","9.687403","sit up","0"
"322829230994512","3","-1.0070591","-0.53562856","9.57242","sit up","0"
"322829250910554","3","-1.1579742","-0.87818205","9.565233","sit up","0"
"322829270823471","3","-1.3328443","-0.86860013","9.677821","sit up","0"
"322829290740450","3","-1.4741774","-0.6721709","9.613143","sit up","0"
"322829310653366","3","-1.5412508","-0.4541823","9.507742","sit up","0"
"322829330589460","3","-1.6514428","-0.6458206","9.457437","sit up","0"
"322829350502377","3","-1.8766179","-0.92848706","9.658657","sit up","0"
"322829370406231","3","-2.053883","-0.9476509","10.190453","sit up","0"
"322829390319148","3","-1.7903806","-0.772781","10.372509","sit up","0"
"322829410217898","3","-1.4622","-0.70331216","9.79999","sit up","0"
"322829430130762","3","-1.3975221","-0.7128941","9.610746","sit up","0"
"322829450067429","3","-1.306494","-0.5955156","9.917368","sit up","0"
"322829469980346","3","-1.1939064","-0.57395625","9.790408","sit up","0"
"322829489876960","3","-1.2298386","-0.53562856","9.265798","sit up","0"
"322829509789877","3","-1.3544035","-0.57156074","9.407132","sit up","0"
"322829529705762","3","-1.3256577","-0.5931201","9.936532","sit up","0"
"322829549618679","3","-1.1436014","-0.5164647","9.984442","sit up","0"
"322829569532637","3","-1.126833","-0.47334614","9.510137","sit up","0"
"322829589445554","3","-1.1052737","-0.5068828","9.387968","sit up","0"
"322829609358887","3","-0.84177107","-0.4134592","9.682611","sit up","0"
"322829629271804","3","-0.59743226","-0.33919933","9.72573","sit up","0"
"322829649188210","3","-0.94477665","-0.5452105","9.637098","sit up","0"
"322829669101127","3","-1.0429913","-0.5691652","9.514928","sit up","0"
"322829689015710","3","-1.2130703","-0.6458206","9.457437","sit up","0"
"322829708928575","3","-1.3040984","-0.46615967","9.720939","sit up","0"
"322829728844148","3","-1.3136804","-0.39908633","9.962883","sit up","0"
"322829748757064","3","-1.0094546","-0.4254366","9.783222","sit up","0"
"322829768688054","3","-1.0525732","-0.5955156","9.467019","sit up","0"
"322829788600971","3","-1.466991","-0.6769619","9.440668","sit up","0"
"322829808531439","3","-1.5172961","-0.5452105","9.797595","sit up","0"
"322829828444356","3","-1.3304486","-0.49250993","9.888623","sit up","0"
"322829848324096","3","-1.2705617","-0.52844214","9.632307","sit up","0"
"322829868237012","3","-1.3328443","-0.57874715","9.567629","sit up","0"
"322829888185189","3","-1.3927312","-0.6482161","9.797595","sit up","0"
"322829908098054","3","-1.301703","-0.6003065","9.960486","sit up","0"
"322829928000710","3","-1.1819291","-0.6314477","9.809572","sit up","0"
"322829947913627","3","-1.2346295","-0.6290523","9.60356","sit up","0"
"322829967816648","3","-1.4262679","-0.6410296","9.680216","sit up","0"
"322829987729564","3","-1.3783584","-0.65300703","9.914973","sit up","0"
"322830007656439","3","-1.0405958","-0.65779805","9.840713","sit up","0"
"322830027569304","3","-1.1124601","-0.6458206","9.565233","sit up","0"
"322830047485189","3","-1.3807538","-0.62426126","9.455041","sit up","0"
"322830067398106","3","-1.5292735","-0.6050974","9.615538","sit up","0"
"322830087280710","3","-1.3328443","-0.5907246","9.744894","sit up","0"
"322830107193575","3","-1.2585844","-0.6458206","9.7089615","sit up","0"
"322830127142689","3","-1.5172961","-0.66737986","9.579606","sit up","0"
"322830147055554","3","-1.6586292","-0.66498446","9.641888","sit up","0"
"322830166947846","3","-1.3783584","-0.7104986","9.823945","sit up","0"
"322830186860762","3","-1.2609799","-0.69852114","9.742498","sit up","0"
"322830206786908","3","-0.9854998","-0.5931201","9.646679","sit up","0"
"322830226700033","3","-0.9256128","-0.6482161","9.701775","sit up","0"
"322830246610710","3","-0.961545","-0.6769619","9.780826","sit up","0"
"322830266523835","3","-1.2130703","-0.6458206","9.891018","sit up","0"
"322830286439200","3","-1.6107197","-0.70091665","9.847899","sit up","0"
"322830306352325","3","-1.7280982","-0.70810306","9.495764","sit up","0"
"322830326257377","3","-1.6394655","-0.6458206","9.402341","sit up","0"
"322830346170554","3","-1.742471","-0.5595834","9.486182","sit up","0"
"322830366089408","3","-1.5987422","-0.5164647","9.641888","sit up","0"
"322830386002533","3","-1.6514428","-0.57874715","9.816758","sit up","0"
"322830405907377","3","-1.7017479","-0.6266568","9.766453","sit up","0"
"322830425820450","3","-1.4813639","-0.52604675","9.550859","sit up","0"
"322830445736231","3","-1.0429913","-0.4302275","9.519719","sit up","0"
"322830465649356","3","-0.8968671","-0.432623","9.749685","sit up","0"
"322830485560346","3","-1.0789235","-0.5068828","9.869459","sit up","0"
"322830505473471","3","-1.5412508","-0.6050974","9.917368","sit up","0"
"322830525387429","3","-1.8598495","-0.432623","9.871854","sit up","0"
"322830545300554","3","-1.5053186","-0.2817079","9.778431","sit up","0"
"322830565221283","3","-1.3999176","-0.26014856","9.586792","sit up","0"
"322830585134408","3","-1.2490025","-0.34638575","9.318499","sit up","0"
"322830605042481","3","-1.1963019","-0.4086682","9.474205","sit up","0"
"322830624955658","3","-1.1052737","-0.5044874","9.605956","sit up","0"
"322830644867169","3","-1.1004827","-0.6003065","9.596374","sit up","0"
"322830664780294","3","-1.0956918","-0.65540254","9.5436735","sit up","0"
"322830684662169","3","-1.0142455","-0.6506115","9.586792","sit up","0"
"322830704575241","3","-1.1028782","-0.6458206","9.72573","sit up","0"
"322830724489929","3","-1.3232622","-0.6434251","9.649075","sit up","0"
"322830744403054","3","-1.411895","-0.6937301","9.610746","sit up","0"
"322830764348783","3","-1.3903357","-0.7152896","9.75208","sit up","0"
"322830784261856","3","-1.3999176","-0.57874715","9.802386","sit up","0"
"322830804140502","3","-1.5628102","-0.48532352","9.694589","sit up","0"
"322830824053575","3","-1.682584","-0.6434251","9.720939","sit up","0"
"322830843966283","3","-1.4909458","-0.7272669","9.888623","sit up","0"
"322830863879356","3","-1.4334543","-0.65300703","10.025165","sit up","0"
"322830883811075","3","-1.6083243","-0.5907246","9.850295","sit up","0"
"322830903724200","3","-1.411895","-0.52604675","9.637098","sit up","0"
"322830923618731","3","-1.5244825","-0.53802407","9.519719","sit up","0"
"322830943531856","3","-1.4454317","-0.54041946","9.534092","sit up","0"
"322830963459200","3","-1.246607","-0.6074929","9.692194","sit up","0"
"322830983372273","3","-1.2130703","-0.57874715","9.682611","sit up","0"
"322831003302741","3","-1.2873302","-0.5164647","9.570024","sit up","0"
"322831023215814","3","-1.2130703","-0.57156074","9.582001","sit up","0"
"322831043123262","3","-1.1771381","-0.66977537","9.732917","sit up","0"
"322831063036387","3","-1.2010928","-0.65540254","9.718544","sit up","0"
"322831082919044","3","-1.131624","-0.547606","9.596374","sit up","0"
"322831102832116","3","-1.2202567","-0.58114266","9.639493","sit up","0"
"322831122762585","3","-1.2633753","-0.62426126","9.778431","sit up","0"
"322831142675710","3","-1.2801437","-0.6290523","9.804781","sit up","0"
"322831162582689","3","-1.3424261","-0.6362387","9.610746","sit up","0"
"322831182495762","3","-1.2825391","-0.6314477","9.617934","sit up","0"
"322831202390085","3","-1.4190814","-0.6721709","9.893414","sit up","0"
"322831222303158","3","-1.4262679","-0.65300703","9.994024","sit up","0"
"322831242250502","3","-1.3975221","-0.62426126","9.790408","sit up","0"
"322831262163575","3","-1.3448216","-0.53802407","9.493369","sit up","0"
"322831282036283","3","-1.356799","-0.5691652","9.601165","sit up","0"
"322831301949304","3","-1.402313","-0.6362387","9.807176","sit up","0"
"322831321887325","3","-1.4190814","-0.65540254","9.795198","sit up","0"
"322831341800398","3","-1.3256577","-0.6410296","9.694589","sit up","0"
"322831361684512","3","-1.2681663","-0.65300703","9.649075","sit up","0"
"322831381597533","3","-1.2801437","-0.6458206","9.608352","sit up","0"
"322831401511335","3","-1.2897255","-0.6410296","9.627516","sit up","0"
"322831421424356","3","-1.2897255","-0.6386341","9.732917","sit up","0"
"322831441336700","3","-1.3184713","-0.62426126","9.740103","sit up","0"
"322831461249773","3","-1.3208668","-0.6314477","9.593979","sit up","0"
"322831481194044","3","-1.2873302","-0.6338432","9.637098","sit up","0"
"322831501107116","3","-1.3328443","-0.60988843","9.617934","sit up","0"
"322831520989929","3","-1.3280532","-0.6122838","9.601165","sit up","0"
"322831540903002","3","-1.3352396","-0.66737986","9.761662","sit up","0"
"322831560815971","3","-1.3496125","-0.6482161","9.768848","sit up","0"
"322831580728991","3","-1.3304486","-0.6266568","9.701775","sit up","0"
"322831600669564","3","-1.292121","-0.6386341","9.668239","sit up","0"
"322831620582637","3","-1.2585844","-0.6290523","9.632307","sit up","0"
"322831640462012","3","-1.2849346","-0.62186587","9.67303","sit up","0"
"322831660375033","3","-1.296912","-0.61947036","9.749685","sit up","0"
"322831680282689","3","-1.3160758","-0.6314477","9.716147","sit up","0"
"322831700195710","3","-1.2993075","-0.60988843","9.65147","sit up","0"
"322831720127794","3","-1.2729573","-0.6050974","9.716147","sit up","0"
"322831740040866","3","-1.2681663","-0.597911","9.685007","sit up","0"
"322831759959669","3","-1.2849346","-0.602702","9.665843","sit up","0"
"322831779872741","3","-1.2753527","-0.61947036","9.7089615","sit up","0"
"322831799770346","3","-1.3232622","-0.6266568","9.713753","sit up","0"
"322831819683419","3","-1.3400307","-0.602702","9.653866","sit up","0"
"322831839605658","3","-1.292121","-0.61467934","9.677821","sit up","0"
"322831859518679","3","-1.2993075","-0.60988843","9.665843","sit up","0"
"322831879414616","3","-1.3280532","-0.62186587","9.622725","sit up","0"
"322831899327689","3","-1.301703","-0.62186587","9.706566","sit up","0"
"322831919240606","3","-1.3088894","-0.6362387","9.7089615","sit up","0"
"322831939153679","3","-1.3208668","-0.6290523","9.692194","sit up","0"
"322831959095294","3","-1.2873302","-0.6266568","9.7089615","sit up","0"
"322831979008366","3","-1.301703","-0.6338432","9.658657","sit up","0"
"322831998899981","3","-1.296912","-0.61947036","9.694589","sit up","0"
"322832018813054","3","-1.306494","-0.6290523","9.740103","sit up","0"
"322832038730606","3","-1.3136804","-0.6338432","9.692194","sit up","0"
"322832058643679","3","-1.306494","-0.60988843","9.728126","sit up","0"
"322832078556648","3","-1.3088894","-0.61947036","9.740103","sit up","0"
"322832098469721","3","-1.306494","-0.6410296","9.658657","sit up","0"
"322832118382846","3","-1.3112848","-0.6338432","9.677821","sit up","0"
"322832138295919","3","-1.3208668","-0.6290523","9.716147","sit up","0"
"322832158211856","3","-1.3160758","-0.6314477","9.716147","sit up","0"
"322832178124825","3","-1.3208668","-0.6338432","9.7089615","sit up","0"
"322832198019460","3","-1.2993075","-0.6266568","9.696984","sit up","0"
"322832217961335","3","-1.2681663","-0.62426126","9.685007","stand up","0"
"322832237874408","3","-1.2873302","-0.6338432","9.696984","stand up","0"
"322832257801648","3","-1.301703","-0.61947036","9.649075","stand up","0"
"322832277714721","3","-1.3280532","-0.6003065","9.680216","stand up","0"
"322832297604460","3","-1.3088894","-0.61467934","9.692194","stand up","0"
"322832317517533","3","-1.301703","-0.61707485","9.682611","stand up","0"
"322832337436127","3","-1.2993075","-0.60988843","9.704171","stand up","0"
"322832357349200","3","-1.2993075","-0.6338432","9.677821","stand up","0"
"322832377267950","3","-1.296912","-0.6266568","9.677821","stand up","0"
"322832397181075","3","-1.306494","-0.62426126","9.670634","stand up","0"
"322832417093679","3","-1.3112848","-0.62186587","9.720939","stand up","0"
"322832437006700","3","-1.3136804","-0.6266568","9.668239","stand up","0"
"322832456959616","3","-1.3088894","-0.6338432","9.694589","stand up","0"
"322832476872689","3","-1.2753527","-0.6338432","9.696984","stand up","0"
"322832496785294","3","-1.296912","-0.6266568","9.605956","stand up","0"
"322832516698366","3","-1.3424261","-0.5931201","9.514928","stand up","0"
"322832536586596","3","-1.3807538","-0.602702","9.59877","stand up","0"
"322832556499616","3","-1.3639854","-0.6386341","9.742498","stand up","0"
"322832576419408","3","-1.337635","-0.6410296","9.718544","stand up","0"
"322832596332429","3","-1.3591944","-0.6458206","9.646679","stand up","0"
"322832616279877","3","-1.3496125","-0.6482161","9.768848","stand up","0"
"322832636192846","3","-1.3472171","-0.65540254","9.838318","stand up","0"
"322832656074877","3","-1.3639854","-0.6482161","9.804781","stand up","0"
"322832675987898","3","-1.356799","-0.6362387","9.74729","stand up","0"
"322832695905241","3","-1.337635","-0.62426126","9.737708","stand up","0"
"322832715818314","3","-1.3328443","-0.61947036","9.716147","stand up","0"
"322832735756491","3","-1.3088894","-0.61707485","9.704171","stand up","0"
"322832755669564","3","-1.3184713","-0.6050974","9.634702","stand up","0"
"322832775573314","3","-1.3160758","-0.60988843","9.589188","stand up","0"
"322832795486387","3","-1.3088894","-0.6386341","9.665843","stand up","0"
"322832815390658","3","-1.292121","-0.61707485","9.778431","stand up","0"
"322832835303679","3","-1.246607","-0.5931201","9.687403","stand up","0"
"322832855251127","3","-1.246607","-0.57395625","9.574815","stand up","0"
"322832875164200","3","-1.292121","-0.57874715","9.649075","stand up","0"
"322832895079825","3","-1.3160758","-0.6003065","9.77364","stand up","0"
"322832914992898","3","-1.3591944","-0.61467934","9.814363","stand up","0"
"322832934881752","3","-1.371172","-0.6050974","9.797595","stand up","0"
"322832954794825","3","-1.3088894","-0.597911","9.704171","stand up","0"
"322832974745919","3","-1.3112848","-0.61707485","9.661052","stand up","0"
"322832994658991","3","-1.3184713","-0.6314477","9.677821","stand up","0"
"322833014544096","3","-1.3040984","-0.6434251","9.764058","stand up","0"
"322833034457169","3","-1.2801437","-0.65300703","9.756871","stand up","0"
"322833054375241","3","-1.2561889","-0.6386341","9.677821","stand up","0"
"322833074288314","3","-1.2346295","-0.6386341","9.680216","stand up","0"
"322833094236283","3","-1.1699517","-0.61707485","9.706566","stand up","0"
"322833114149356","3","-1.1675562","-0.61707485","9.74729","stand up","0"
"322833134035606","3","-1.2250476","-0.5907246","9.641888","stand up","0"
"322833153948679","3","-1.2322341","-0.53802407","9.502951","stand up","0"
"322833173882637","3","-1.18672","-0.6434251","9.613143","stand up","0"
"322833193795710","3","-1.026223","-0.74403524","9.859877","stand up","0"
"322833213726335","3","-0.8226073","-0.7655945","9.943719","stand up","0"
"322833233639929","3","-0.66450566","-0.7224759","9.835922","stand up","0"
"322833253523054","3","-0.50400865","-0.7200804","9.663447","stand up","0"
"322833273436648","3","-0.39860755","-0.7128941","9.74729","stand up","0"
"322833293356283","3","-1.1939064","-0.6458206","9.958092","stand up","0"
"322833313269877","3","-1.402313","-0.5500015","9.7880125","stand up","0"
"322833333196544","3","-1.2561889","-0.57874715","9.548465","stand up","0"
"322833353110085","3","-1.3304486","-0.7248714","9.586792","stand up","0"
"322833373033419","3","-1.411895","-0.7248714","9.596374","stand up","0"
"322833392947064","3","-1.3160758","-0.82787704","9.57242","stand up","0"
"322833412877950","3","-1.301703","-0.83985436","9.665843","stand up","0"
"322833432791544","3","-1.3352396","-0.7272669","9.658657","stand up","0"
"322833452703262","3","-1.2298386","-0.61707485","9.62512","stand up","0"
"322833472616856","3","-0.9711269","-0.6937301","9.57721","stand up","0"
"322833492531231","3","-0.68606496","-0.66977537","9.560442","stand up","0"
"322833512444825","3","-0.5423363","-0.66498446","9.593979","stand up","0"
"322833532336700","3","-0.43214428","-0.717685","9.692194","stand up","0"
"322833552250294","3","-0.25487888","-0.66977537","9.792804","stand up","0"
"322833572196387","3","0.04216051","-0.61467934","9.831131","stand up","0"
"322833592109981","3","0.046951473","-0.57395625","9.792804","stand up","0"
"322833612021335","3","-0.36986184","-0.6386341","9.802386","stand up","0"
"322833631934929","3","-0.6692966","-0.66258895","9.79999","stand up","0"
"322833651847741","3","-0.6189916","-0.61947036","9.649075","stand up","0"
"322833671761335","3","-0.58305943","-0.6003065","9.744894","stand up","0"
"322833691676439","3","-0.47047192","-0.6338432","9.74729","stand up","0"
"322833711590033","3","-0.32434773","-0.6506115","9.74729","stand up","0"
"322833731502741","3","-0.295602","-0.6386341","9.744894","stand up","0"
"322833751416335","3","-0.39381662","-0.6434251","9.749685","stand up","0"
"322833771337950","3","-0.5183815","-0.61947036","9.77364","stand up","0"
"322833791251544","3","-0.53994083","-0.5955156","9.742498","stand up","0"
"322833811164304","3","-0.53275436","-0.61467934","9.732917","stand up","0"
"322833831077898","3","-0.50879955","-0.6122838","9.718544","stand up","0"
"322833850963419","3","-0.45370355","-0.602702","9.742498","stand up","0"
"322833870877012","3","-0.46328548","-0.5955156","9.756871","stand up","0"
"322833890828523","3","-0.48005384","-0.6074929","9.720939","stand up","0"
"322833910742116","3","-0.50161314","-0.602702","9.7353115","stand up","0"
"322833930623731","3","-0.5279634","-0.6003065","9.740103","stand up","0"
"322833950537325","3","-0.5183815","-0.6074929","9.756871","stand up","0"
"322833970454721","3","-0.48963574","-0.6074929","9.754476","stand up","0"
"322833990368262","3","-0.45370355","-0.61947036","9.723335","stand up","0"
"322834010313679","3","-0.4824493","-0.6266568","9.732917","stand up","0"
"322834030227273","3","-0.58305943","-0.58114266","9.778431","stand up","0"
"322834050110971","3","-0.45130807","-0.61947036","9.716147","stand up","0"
"322834070024564","3","-0.5351498","-0.6362387","9.704171","stand up","0"
"322834089935710","3","-0.45130807","-0.5835382","9.75208","stand up","0"
"322834109849304","3","-0.5135905","-0.6122838","9.79999","stand up","0"
"322834129787533","3","-0.46089","-0.6290523","9.716147","stand up","0"
"322834149701179","3","-0.49203122","-0.5931201","9.720939","stand up","0"
"322834169624929","3","-0.5255679","-0.6003065","9.7880125","stand up","0"
"322834189538471","3","-0.50161314","-0.6290523","9.764058","stand up","0"
"322834209422846","3","-0.49682218","-0.6122838","9.718544","stand up","0"
"322834229336439","3","-0.45370355","-0.5835382","9.759267","stand up","0"
"322834249283054","3","-0.520777","-0.6050974","9.764058","stand up","0"
"322834269196648","3","-0.4824493","-0.6003065","9.728126","stand up","0"
"322834289080606","3","-0.515986","-0.6003065","9.730521","stand up","0"
"322834308994408","3","-0.49442673","-0.5955156","9.761662","stand up","0"
"322834328912221","3","-0.48005384","-0.60988843","9.764058","stand up","0"
"322834348826023","3","-0.49442673","-0.6050974","9.742498","stand up","0"
"322834368769252","3","-0.48963574","-0.6050974","9.754476","stand up","0"
"322834388683054","3","-0.5135905","-0.60988843","9.754476","stand up","0"
"322834408571387","3","-0.49682218","-0.60988843","9.74729","stand up","0"
"322834428485189","3","-0.50161314","-0.61467934","9.756871","stand up","0"
"322834448401804","3","-0.4824493","-0.61707485","9.744894","stand up","0"
"322834468315606","3","-0.4824493","-0.6003065","9.723335","stand up","0"
"322834488261023","3","-0.48963574","-0.61467934","9.7353115","stand up","0"
"322834508174825","3","-0.4728674","-0.6266568","9.776035","stand up","0"
"322834528054981","3","-0.49203122","-0.60988843","9.742498","stand up","0"
"322834547968783","3","-0.48005384","-0.602702","9.720939","stand up","0"
"322834567914044","3","-0.49203122","-0.61467934","9.740103","stand up","0"
"322834587827846","3","-0.47526285","-0.60988843","9.737708","stand up","0"
"322834607743783","3","-0.5135905","-0.58114266","9.75208","stand up","0"
"322834627657585","3","-0.48963574","-0.5955156","9.764058","stand up","0"
"322834647571023","3","-0.46807644","-0.6362387","9.711357","stand up","0"
"322834667484721","3","-0.49442673","-0.62186587","9.69938","stand up","0"
"322834687368471","3","-0.47526285","-0.5907246","9.771244","stand up","0"
"322834707282273","3","-0.515986","-0.5907246","9.785617","stand up","0"
"322834727195085","3","-0.48963574","-0.6003065","9.756871","stand up","0"
"322834747108887","3","-0.5135905","-0.602702","9.7353115","stand up","0"
"322834767053106","3","-0.4824493","-0.602702","9.730521","stand up","0"
"322834786966908","3","-0.46328548","-0.6050974","9.720939","stand up","0"
"322834806888054","3","-0.47526285","-0.6074929","9.723335","stand up","0"
"322834826801856","3","-0.51119506","-0.6003065","9.74729","stand up","0"
"322834846680398","3","-0.49921766","-0.60988843","9.761662","stand up","0"
"322834866594200","3","-0.4824493","-0.62186587","9.740103","stand up","0"
"322834886525866","3","-0.4824493","-0.61947036","9.720939","stand up","0"
"322834906439616","3","-0.48005384","-0.602702","9.761662","stand up","0"
"322834926333939","3","-0.49442673","-0.60988843","9.75208","stand up","0"
"322834946247741","3","-0.47526285","-0.6074929","9.75208","stand up","0"
"322834966176387","3","-0.49921766","-0.597911","9.77364","stand up","0"
"322834986090189","3","-0.46089","-0.602702","9.728126","stand up","0"
"322835006004721","3","-0.47526285","-0.61707485","9.732917","stand up","0"
"322835025918471","3","-0.48724028","-0.5883291","9.764058","stand up","0"
"322835045853210","3","-0.48484477","-0.597911","9.771244","stand up","0"
"322835065767012","3","-0.49921766","-0.6122838","9.718544","stand up","0"
"322835085681596","3","-0.46568096","-0.62186587","9.692194","stand up","0"
"322835105595398","3","-0.48005384","-0.6003065","9.742498","stand up","0"
"322835125510502","3","-0.48484477","-0.597911","9.761662","stand up","0"
"322835145424304","3","-0.50400865","-0.61947036","9.744894","stand up","0"
"322835165315606","3","-0.49442673","-0.61707485","9.766453","stand up","0"
"322835185229408","3","-0.48963574","-0.6122838","9.732917","stand up","0"
"322835205173314","3","-0.48724028","-0.597911","9.718544","stand up","0"
"322835225087116","3","-0.46568096","-0.6050974","9.730521","stand up","0"
"322835245003002","3","-0.48963574","-0.61707485","9.744894","stand up","0"
"322835264916804","3","-0.48963574","-0.6003065","9.771244","stand up","0"
"322835284832012","3","-0.50879955","-0.6122838","9.74729","stand up","0"
"322835304745814","3","-0.48724028","-0.6122838","9.728126","stand up","0"
"322835324660346","3","-0.49203122","-0.61467934","9.7353115","stand up","0"
"322835344574148","3","-0.4824493","-0.602702","9.754476","stand up","0"
"322835364494200","3","-0.47765836","-0.6074929","9.764058","stand up","0"
"322835384408002","3","-0.49203122","-0.6074929","9.742498","stand up","0"
"322835404315658","3","-0.48963574","-0.597911","9.742498","stand up","0"
"322835424229460","3","-0.4824493","-0.6122838","9.72573","stand up","0"
"322835444140085","3","-0.46807644","-0.60988843","9.75208","stand up","0"
"322835464053887","3","-0.4824493","-0.6050974","9.754476","stand up","0"
"322835483970502","3","-0.48724028","-0.6050974","9.737708","stand up","0"
"322835503884304","3","-0.49921766","-0.6050974","9.740103","stand up","0"
"322835523773783","3","-0.49682218","-0.62186587","9.742498","stand up","0"
"322835543687585","3","-0.48724028","-0.6050974","9.756871","stand up","0"
"322835563627273","3","-0.47765836","-0.5883291","9.732917","stand up","0"
"322835583541075","3","-0.48724028","-0.6050974","9.730521","stand up","0"
"322835603446544","3","-0.49921766","-0.61467934","9.737708","stand up","0"
"322835623360294","3","-0.48724028","-0.6050974","9.740103","stand up","0"
"322835643255033","3","-0.48005384","-0.6122838","9.749685","stand up","0"
"322835663168835","3","-0.47765836","-0.602702","9.74729","stand up","0"
"322835683111752","3","-0.48724028","-0.597911","9.744894","stand up","0"
"322835703025658","3","-0.48484477","-0.6122838","9.744894","stand up","0"
"322835722923106","3","-0.4824493","-0.60988843","9.744894","stand up","0"
"322835742837012","3","-0.49442673","-0.6074929","9.744894","stand up","0"
"322835762763887","3","-0.4824493","-0.602702","9.742498","stand up","0"
"322835782677794","3","-0.49442673","-0.60988843","9.754476","stand up","0"
"322835802582221","3","-0.49203122","-0.602702","9.764058","stand up","0"
"322835822496127","3","-0.48724028","-0.5931201","9.756871","stand up","0"
"322835842406075","3","-0.48484477","-0.6050974","9.744894","stand up","0"
"322835862319981","3","-0.48005384","-0.60988843","9.744894","stand up","0"
"322835882229773","3","-0.48484477","-0.6050974","9.749685","stand up","0"
"322835902143679","3","-0.4728674","-0.60988843","9.737708","stand up","0"
"322835922043523","3","-0.47765836","-0.602702","9.744894","stand up","0"
"322835941957429","3","-0.48724028","-0.602702","9.732917","stand up","0"
"322835961905866","3","-0.4728674","-0.61707485","9.732917","stand up","0"
"322835981819773","3","-0.48963574","-0.61467934","9.754476","stand up","0"
"322836001728783","3","-0.49203122","-0.6050974","9.74729","stand up","0"
"322836021642689","3","-0.47526285","-0.597911","9.737708","stand up","0"
"322836041544616","3","-0.47765836","-0.6050974","9.74729","stand up","0"
"322836061458523","3","-0.49682218","-0.60988843","9.740103","stand up","0"
"322836081380814","3","-0.48724028","-0.602702","9.744894","stand up","0"
"322836101294721","3","-0.49682218","-0.61707485","9.756871","stand up","0"
"322836121194044","3","-0.49442673","-0.62426126","9.759267","stand up","0"
"322836141107846","3","-0.46328548","-0.6122838","9.730521","stand up","0"
"322836161042169","3","-0.46568096","-0.6050974","9.737708","stand up","0"
"322836180956075","3","-0.4824493","-0.602702","9.764058","stand up","0"
"322836200871387","3","-0.4824493","-0.6122838","9.740103","stand up","0"
"322836220785241","3","-0.4728674","-0.6122838","9.744894","stand up","1"
"322836240682689","3","-0.4824493","-0.6074929","9.75208","none","1"
"322836260616231","3","-0.49682218","-0.61467934","9.749685","none","1"
"322836280530137","3","-0.48963574","-0.5883291","9.759267","none","1"
"322836300444512","3","-0.4824493","-0.602702","9.74729","none","1"
"322836320358419","3","-0.48724028","-0.602702","9.756871","none","1"
"322836340273210","3","-0.48005384","-0.6122838","9.744894","none","1"
"322836360187064","3","-0.48005384","-0.6050974","9.723335","none","1"
"322836380082481","3","-0.4824493","-0.6074929","9.740103","none","1"
"322836399996387","3","-0.4824493","-0.6050974","9.740103","none","1"
"322836419920814","3","-0.48724028","-0.6050974","9.749685","none","1"
"322836439834721","3","-0.49442673","-0.6074929","9.74729","none","1"
"322836459756023","3","-0.48005384","-0.6003065","9.75208","none","1"
"322836479669929","3","-0.48005384","-0.597911","9.744894","none","1"
"322836499580606","3","-0.49203122","-0.61947036","9.74729","none","1"
"322836519494512","3","-0.48724028","-0.60988843","9.7353115","none","1"
"322836539417898","3","-0.48724028","-0.6003065","9.742498","none","1"
"322836559331804","3","-0.47765836","-0.6122838","9.749685","none","1"
"322836579246231","3","-0.49203122","-0.6074929","9.749685","none","1"
"322836599160137","3","-0.49203122","-0.61467934","9.737708","none","1"
"322836619062689","3","-0.46807644","-0.597911","9.7353115","none","1"
"322836638976596","3","-0.47526285","-0.61467934","9.761662","none","1"
"322836658910554","3","-0.48005384","-0.5931201","9.740103","none","1"
"322836678824408","3","-0.49442673","-0.602702","9.740103","none","1"
"322836698734252","3","-0.49442673","-0.60988843","9.732917","none","1"
"322836718648158","3","-0.48724028","-0.60988843","9.7353115","none","1"
"322836738564408","3","-0.48724028","-0.61707485","9.744894","none","1"
"322836758478314","3","-0.47765836","-0.6122838","9.737708","none","1"
"322836778393523","3","-0.47765836","-0.5835382","9.728126","none","1"
"322836798307429","3","-0.48963574","-0.6050974","9.754476","none","1"
"322836818225189","3","-0.4728674","-0.6074929","9.754476","none","1"
"322836838139096","3","-0.47047192","-0.6074929","9.7353115","none","1"
"322836858055346","3","-0.4728674","-0.602702","9.723335","none","1"
"322836877969252","3","-0.47526285","-0.5883291","9.744894","none","1"
"322836897888627","3","-0.48005384","-0.602702","9.754476","none","1"
"322836917802533","3","-0.47765836","-0.597911","9.740103","none","1"
"322836937719096","3","-0.4824493","-0.6074929","9.756871","none","1"
"322836957633002","3","-0.48005384","-0.61467934","9.754476","none","1"
"322836977546387","3","-0.49921766","-0.597911","9.749685","none","1"
"322836997460294","3","-0.49921766","-0.5955156","9.756871","none","1"
"322837017374304","3","-0.47765836","-0.6050974","9.75208","none","1"
"322837037288210","3","-0.49682218","-0.6003065","9.742498","none","1"
"322837057199877","3","-0.47765836","-0.5931201","9.74729","none","1"
"322837077113783","3","-0.47526285","-0.6122838","9.744894","none","1"
"322837097026491","3","-0.47765836","-0.6122838","9.766453","none","1"
"322837116940398","3","-0.4824493","-0.6050974","9.74729","none","1"
"322837136870137","3","-0.48484477","-0.61467934","9.756871","none","1"
"322837156783991","3","-0.4824493","-0.62426126","9.761662","none","1"
"322837176693106","3","-0.49203122","-0.597911","9.732917","none","1"
"322837196607012","3","-0.48963574","-0.6074929","9.75208","none","1"
"322837216500710","3","-0.48005384","-0.62426126","9.742498","none","1"
"322837236414616","3","-0.48484477","-0.62186587","9.749685","none","1"
"322837256348731","3","-0.48724028","-0.6122838","9.756871","none","1"
"322837276262794","3","-0.49203122","-0.62426126","9.75208","none","1"
"322837296176752","3","-0.4824493","-0.60988843","9.74729","none","1"
"322837316090814","3","-0.4824493","-0.5931201","9.737708","none","1"
"322837335993991","3","-0.49682218","-0.602702","9.74729","none","1"
"322837355908106","3","-0.48005384","-0.602702","9.744894","none","1"
"322837375839096","3","-0.46568096","-0.61467934","9.749685","none","1"
"322837395753158","3","-0.47765836","-0.5955156","9.749685","none","1"
"322837415669564","3","-0.47047192","-0.6122838","9.749685","none","1"
"322837435583627","3","-0.46807644","-0.62186587","9.744894","none","1"
"322837455491596","3","-0.48005384","-0.60988843","9.742498","none","1"
"322837475405710","3","-0.49442673","-0.5955156","9.761662","none","1"
"322837495327221","3","-0.49442673","-0.5931201","9.756871","none","1"
"322837515241283","3","-0.49442673","-0.60988843","9.732917","none","1"
"322837535158419","3","-0.48484477","-0.6050974","9.75208","none","1"
"322837555072481","3","-0.4728674","-0.6003065","9.74729","none","1"
"322837574988731","3","-0.4824493","-0.5955156","9.75208","none","1"
"322837594902794","3","-0.4824493","-0.5931201","9.74729","none","1"
"322837614818002","3","-0.47526285","-0.60988843","9.723335","none","1"
"322837634732064","3","-0.47526285","-0.602702","9.740103","none","1"
"322837654648523","3","-0.49203122","-0.60988843","9.74729","none","1"
"322837674562585","3","-0.47047192","-0.61467934","9.72573","none","1"
"322837694496856","3","-0.47765836","-0.5907246","9.766453","none","1"
"322837714410971","3","-0.4824493","-0.6074929","9.742498","none","1"
"322837734305658","3","-0.48484477","-0.62186587","9.742498","none","1"
"322837754219721","3","-0.48484477","-0.61707485","9.744894","none","1"
"322837774148523","3","-0.4824493","-0.6050974","9.776035","none","1"
"322837794062637","3","-0.48005384","-0.6074929","9.783222","none","1"
"322837813944616","3","-0.48005384","-0.6314477","9.711357","none","1"
"322837833858731","3","-0.45370355","-0.6074929","9.706566","none","1"
"322837853794044","3","-0.45609906","-0.60988843","9.754476","none","1"
"322837873708106","3","-0.47765836","-0.61947036","9.756871","none","1"
"322837893623523","3","-0.49921766","-0.6050974","9.75208","none","1"
"322837913537585","3","-0.48963574","-0.6003065","9.754476","none","1"
"322837933434721","3","-0.48963574","-0.6122838","9.720939","none","1"
"322837953348783","3","-0.45609906","-0.60988843","9.720939","none","1"
"322837973294981","3","-0.46807644","-0.60988843","9.711357","none","1"
"322837993209148","3","-0.47047192","-0.5931201","9.764058","none","1"
"322838013112012","3","-0.47765836","-0.61467934","9.744894","none","1"
"322838033026075","3","-0.49203122","-0.6074929","9.72573","none","1"
"322838052938106","3","-0.47765836","-0.597911","9.754476","none","1"
"322838072852221","3","-0.44891262","-0.597911","9.761662","none","1"
"322838092768835","3","-0.47047192","-0.6050974","9.72573","none","1"
"322838112682898","3","-0.4824493","-0.602702","9.756871","none","1"
"322838132597898","3","-0.48484477","-0.602702","9.749685","none","1"
"322838152511960","3","-0.48005384","-0.61947036","9.7353115","none","1"
"322838172434669","3","-0.46807644","-0.6050974","9.744894","none","1"
"322838192348783","3","-0.48005384","-0.602702","9.754476","none","1"
"322838212260189","3","-0.46568096","-0.6122838","9.732917","none","1"
"322838232174252","3","-0.4824493","-0.6050974","9.75208","none","1"
"322838252091387","3","-0.5064041","-0.6003065","9.761662","none","1"
"322838272005502","3","-0.48484477","-0.5931201","9.74729","none","1"
"322838291915762","3","-0.47047192","-0.597911","9.75208","none","1"
"322838311829929","3","-0.48963574","-0.6074929","9.749685","none","1"
"322838331753366","3","-0.48484477","-0.6290523","9.742498","none","1"
"322838351667637","3","-0.48484477","-0.597911","9.7353115","none","1"
"322838371584669","3","-0.4728674","-0.60988843","9.744894","none","1"
"322838391498887","3","-0.47765836","-0.61707485","9.744894","none","1"
"322838411407116","3","-0.49203122","-0.61707485","9.759267","none","1"
"322838431321387","3","-0.47765836","-0.597911","9.742498","none","1"
"322838451239877","3","-0.46328548","-0.60988843","9.742498","none","1"
"322838471154148","3","-0.48724028","-0.61467934","9.740103","none","1"
"322838491071127","3","-0.4728674","-0.602702","9.7353115","none","1"
"322838510985398","3","-0.48005384","-0.61467934","9.737708","none","1"
"322838530903731","3","-0.47526285","-0.6122838","9.72573","none","1"
"322838550818002","3","-0.5064041","-0.5955156","9.756871","none","1"
"322838570738106","3","-0.46568096","-0.6003065","9.764058","none","1"
"322838590652377","3","-0.48005384","-0.6266568","9.732917","none","1"
"322838610564929","3","-0.47047192","-0.602702","9.728126","none","1"
"322838630479200","3","-0.46328548","-0.5859337","9.754476","none","1"
"322838650397794","3","-0.48724028","-0.597911","9.754476","none","1"
"322838670312064","3","-0.4824493","-0.6050974","9.749685","none","1"
"322838690231075","3","-0.48963574","-0.5859337","9.749685","none","1"
"322838710145346","3","-0.46807644","-0.6074929","9.754476","none","1"
"322838730065919","3","-0.47526285","-0.597911","9.718544","none","1"
"322838749980189","3","-0.48005384","-0.597911","9.732917","none","1"
"322838769904460","3","-0.49203122","-0.61467934","9.754476","none","1"
"322838789818731","3","-0.48724028","-0.61467934","9.7353115","none","1"
"322838809732377","3","-0.47526285","-0.597911","9.7353115","none","1"
"322838829646648","3","-0.48484477","-0.602702","9.728126","none","1"
"322838849576127","3","-0.48005384","-0.60988843","9.749685","none","1"
"322838869490398","3","-0.4824493","-0.60988843","9.75208","none","1"
"322838889404200","3","-0.47765836","-0.60988843","9.74729","none","1"
"322838909318419","3","-0.47526285","-0.6003065","9.732917","none","1"
"322838929242377","3","-0.47765836","-0.6074929","9.740103","none","1"
"322838949156648","3","-0.48963574","-0.60988843","9.7353115","none","1"
"322838969089512","3","-0.48963574","-0.60988843","9.749685","none","1"
"322838989003731","3","-0.48005384","-0.62186587","9.72573","none","1"
"322839008925710","3","-0.47765836","-0.6003065","9.7353115","none","1"
"322839028839929","3","-0.47047192","-0.6003065","9.74729","none","1"
"322839048742064","3","-0.46807644","-0.61467934","9.75208","none","1"
"322839068656335","3","-0.48484477","-0.597911","9.742498","none","1"
"322839088576752","3","-0.47526285","-0.5955156","9.761662","none","1"
"322839108491023","3","-0.48484477","-0.60988843","9.74729","none","1"
"322839128391804","3","-0.49203122","-0.6050974","9.754476","none","1"
"322839148305971","3","-0.47765836","-0.61467934","9.759267","none","1"
"322839168236439","3","-0.48005384","-0.61467934","9.75208","none","1"
"322839188150658","3","-0.46807644","-0.6050974","9.75208","none","1"
"322839208061231","3","-0.48005384","-0.6074929","9.75208","none","1"
"322839227975398","3","-0.48724028","-0.6074929","9.728126","none","1"
"322839247928471","3","-0.49442673","-0.6003065","9.756871","none","1"
"322839267842689","3","-0.4824493","-0.61707485","9.72573","none","1"
"322839287745658","3","-0.48005384","-0.60988843","9.744894","none","1"
"322839307659929","3","-0.46807644","-0.6074929","9.723335","none","1"
"322839327563262","3","-0.48724028","-0.602702","9.730521","none","1"
"322839347477898","3","-0.48963574","-0.5955156","9.749685","none","1"
"322839367409408","3","-0.47765836","-0.6050974","9.742498","none","1"
"322839387324096","3","-0.48005384","-0.6050974","9.74729","none","1"
"322839407265137","3","-0.48005384","-0.60988843","9.759267","none","1"
"322839427179825","3","-0.46089","-0.61467934","9.74729","none","1"
"322839447079616","3","-0.48005384","-0.6003065","9.759267","none","1"
"322839466994304","3","-0.48484477","-0.6074929","9.74729","none","1"
"322839486893366","3","-0.4728674","-0.5931201","9.74729","none","1"
"322839506808054","3","-0.4728674","-0.5955156","9.744894","none","1"
"322839526726127","3","-0.47526285","-0.60988843","9.737708","none","1"
"322839546640814","3","-0.48005384","-0.6074929","9.7353115","none","1"
"322839566585866","3","-0.46807644","-0.602702","9.730521","none","1"
"322839586500502","3","-0.47047192","-0.6122838","9.732917","none","1"
"322839606396439","3","-0.49203122","-0.6122838","9.737708","none","1"
"322839626311075","3","-0.46807644","-0.5955156","9.737708","none","1"
"322839646219252","3","-0.47765836","-0.6003065","9.742498","none","1"
"322839666133887","3","-0.47765836","-0.60988843","9.75208","none","1"
"322839686055554","3","-0.48005384","-0.60988843","9.711357","none","1"
"322839705970189","3","-0.4728674","-0.60988843","9.7353115","none","1"
"322839725886544","3","-0.47047192","-0.6050974","9.744894","none","1"
"322839745801231","3","-0.4728674","-0.602702","9.732917","none","1"
"322839765755866","3","-0.4824493","-0.60988843","9.732917","none","1"
"322839785670502","3","-0.48484477","-0.6074929","9.74729","none","1"
"322839805571387","3","-0.47765836","-0.6074929","9.744894","none","1"
"322839825486023","3","-0.48724028","-0.6074929","9.761662","none","1"
"322839845402273","3","-0.48005384","-0.6050974","9.740103","none","1"
"322839865316908","3","-0.47765836","-0.602702","9.7353115","none","1"
"322839885242741","3","-0.46807644","-0.61467934","9.7353115","none","1"
"322839905157377","3","-0.48484477","-0.61947036","9.744894","none","1"
"322839925076648","3","-0.4728674","-0.602702","9.728126","none","1"
"322839944991283","3","-0.47526285","-0.60988843","9.764058","none","1"
"322839964893471","3","-0.48005384","-0.61467934","9.754476","none","1"
"322839984808158","3","-0.48484477","-0.602702","9.737708","none","1"
"322840004746023","3","-0.48484477","-0.597911","9.740103","none","1"
"322840024660658","3","-0.45370355","-0.602702","9.720939","none","1"
"322840044569721","3","-0.4824493","-0.6122838","9.740103","none","1"
"322840064484356","3","-0.47765836","-0.602702","9.749685","none","1"
"322840084409564","3","-0.47526285","-0.61467934","9.740103","none","1"
"322840104324200","3","-0.46328548","-0.60988843","9.732917","none","1"
"322840124245606","3","-0.48005384","-0.5955156","9.737708","none","1"
"322840144160294","3","-0.49682218","-0.602702","9.749685","none","1"
"322840164085710","3","-0.49203122","-0.6003065","9.744894","none","1"
"322840184000346","3","-0.47765836","-0.6074929","9.737708","none","1"
"322840203907116","3","-0.44891262","-0.6074929","9.744894","sit down","1"
"322840223821752","3","-0.48484477","-0.5883291","9.749685","sit down","1"
"322840243764200","3","-0.49442673","-0.6074929","9.766453","sit down","1"
"322840263678835","3","-0.47047192","-0.602702","9.754476","sit down","1"
"322840283598262","3","-0.48963574","-0.6003065","9.740103","sit down","1"
"322840303512898","3","-0.4824493","-0.597911","9.754476","sit down","1"
"322840323432794","3","-0.47765836","-0.6122838","9.75208","sit down","1"
"322840343347429","3","-0.47526285","-0.602702","9.742498","sit down","1"
"322840363269616","3","-0.47526285","-0.6122838","9.744894","sit down","1"
"322840383184825","3","-0.47526285","-0.61707485","9.711357","sit down","1"
"322840403097377","3","-0.47526285","-0.61947036","9.7353115","sit down","1"
"322840423012585","3","-0.48005384","-0.602702","9.749685","sit down","1"
"322840442914304","3","-0.47765836","-0.6074929","9.754476","sit down","1"
"322840462829460","3","-0.48724028","-0.6122838","9.744894","sit down","1"
"322840482763366","3","-0.46328548","-0.60988843","9.737708","sit down","1"
"322840502678627","3","-0.47047192","-0.6050974","9.740103","sit down","1"
"322840522567221","3","-0.48005384","-0.6074929","9.7353115","sit down","1"
"322840542482429","3","-0.48484477","-0.60988843","9.756871","sit down","1"
"322840562437012","3","-0.47526285","-0.61467934","9.744894","sit down","1"
"322840582352221","3","-0.49442673","-0.6050974","9.75208","sit down","1"
"322840602236544","3","-0.48724028","-0.6050974","9.764058","sit down","1"
"322840622151752","3","-0.48484477","-0.60988843","9.749685","sit down","1"
"322840642070919","3","-0.48005384","-0.6074929","9.74729","sit down","1"
"322840661986127","3","-0.47047192","-0.6074929","9.737708","sit down","1"
"322840681923627","3","-0.47047192","-0.6050974","9.761662","sit down","1"
"322840701838835","3","-0.48484477","-0.602702","9.732917","sit down","1"
"322840721734252","3","-0.4728674","-0.62186587","9.723335","sit down","1"
"322840741649460","3","-0.46328548","-0.6074929","9.72573","sit down","1"
"322840761574773","3","-0.48724028","-0.6050974","9.737708","sit down","1"
"322840781489981","3","-0.47526285","-0.597911","9.744894","sit down","1"
"322840801432794","3","-0.48724028","-0.5931201","9.75208","sit down","1"
"322840821348002","3","-0.49682218","-0.60988843","9.766453","sit down","1"
"322840841234408","3","-0.48005384","-0.602702","9.744894","sit down","1"
"322840861149616","3","-0.4728674","-0.6050974","9.728126","sit down","1"
"322840881060971","3","-0.48484477","-0.6074929","9.732917","sit down","1"
"322840900976179","3","-0.48005384","-0.5955156","9.740103","sit down","1"
"322840920911179","3","-0.47526285","-0.602702","9.723335","sit down","1"
"322840940826387","3","-0.4824493","-0.62426126","9.723335","sit down","1"
"322840960726127","3","-0.48484477","-0.61707485","9.776035","sit down","1"
"322840980641335","3","-0.46568096","-0.597911","9.761662","sit down","1"
"322841000545866","3","-0.47765836","-0.6003065","9.732917","sit down","1"
"322841020461075","3","-0.48484477","-0.5955156","9.740103","sit down","1"
"322841040407221","3","-0.48005384","-0.62186587","9.768848","sit down","1"
"322841060322429","3","-0.4728674","-0.61467934","9.716147","sit down","1"
"322841080207637","3","-0.4728674","-0.6003065","9.7353115","sit down","1"
"322841100122846","3","-0.47526285","-0.5955156","9.740103","sit down","1"
"322841120041752","3","-0.49442673","-0.6074929","9.730521","sit down","1"
"322841139956960","3","-0.46807644","-0.6122838","9.7353115","sit down","1"
"322841159873575","3","-0.49442673","-0.6003065","9.730521","sit down","1"
"322841179788783","3","-0.4728674","-0.597911","9.720939","sit down","1"
"322841199703002","3","-0.4824493","-0.5907246","9.742498","sit down","1"
"322841219618210","3","-0.46568096","-0.5907246","9.766453","sit down","1"
"322841239534512","3","-0.46807644","-0.6074929","9.759267","sit down","1"
"322841259449721","3","-0.46568096","-0.6003065","9.7353115","sit down","1"
"322841279383158","3","-0.48963574","-0.6003065","9.730521","sit down","1"
"322841299298314","3","-0.49682218","-0.61707485","9.75208","sit down","1"
"322841319222533","3","-0.48005384","-0.61707485","9.716147","sit down","1"
"322841339137741","3","-0.50161314","-0.6074929","9.713753","sit down","1"
"322841359026023","3","-0.5064041","-0.6050974","9.713753","sit down","1"
"322841378941179","3","-0.50400865","-0.597911","9.689797","sit down","1"
"322841398889096","3","-0.52317244","-0.6003065","9.7089615","sit down","1"
"322841418804408","3","-0.520777","-0.602702","9.694589","sit down","1"
"322841438684669","3","-0.5255679","-0.61467934","9.716147","sit down","1"
"322841458599981","3","-0.48724028","-0.602702","9.713753","sit down","1"
"322841478513210","3","-0.46807644","-0.5931201","9.685007","sit down","1"
"322841498428523","3","-0.5064041","-0.57635164","9.687403","sit down","1"
"322841518362585","3","-0.4393307","-0.6050974","9.706566","sit down","1"
"322841538277898","3","-0.47765836","-0.6074929","9.744894","sit down","1"
"322841558176752","3","-0.4273533","-0.5955156","9.740103","sit down","1"
"322841578092064","3","-0.42016685","-0.5691652","9.7353115","sit down","1"
"322841598001491","3","-0.3626754","-0.6266568","9.711357","sit down","1"
"322841617916804","3","-0.49203122","-0.62426126","9.732917","sit down","1"
"322841637863523","3","-0.5183815","-0.5859337","9.732917","sit down","1"
"322841657778835","3","-0.40818948","-0.6074929","9.802386","sit down","1"
"322841677665606","3","-0.4393307","-0.61947036","9.821548","sit down","1"
"322841697580919","3","-0.5806639","-0.6122838","9.759267","sit down","1"
"322841717512064","3","-0.6046187","-0.62186587","9.737708","sit down","1"
"322841737427325","3","-0.5303589","-0.6122838","9.785617","sit down","1"
"322841757324356","3","-0.5854549","-0.5955156","9.82634","sit down","1"
"322841777239616","3","-0.7723022","-0.57874715","9.749685","sit down","1"
"322841797185189","3","-0.7507429","-0.62186587","9.680216","sit down","1"
"322841817075137","3","-0.6956469","-0.6362387","9.720939","sit down","1"
"322841836990450","3","-0.6692966","-0.6458206","9.75208","sit down","1"
"322841856933419","3","-0.7196017","-0.6338432","9.795198","sit down","1"
"322841876848731","3","-0.76751125","-0.6338432","9.749685","sit down","1"
"322841896764773","3","-0.75313836","-0.6266568","9.696984","sit down","1"
"322841916680085","3","-0.73157907","-0.61467934","9.682611","sit down","1"
"322841936592689","3","-0.73876554","-0.60988843","9.730521","sit down","1"
"322841956508002","3","-0.7627203","-0.6050974","9.677821","sit down","1"
"322841976422741","3","-0.76032484","-0.6122838","9.613143","sit down","1"
"322841996338054","3","-0.7124152","-0.6314477","9.720939","sit down","1"
"322842016257637","3","-0.68127406","-0.6362387","9.831131","sit down","1"
"322842036172950","3","-0.70283335","-0.61707485","9.857482","sit down","1"
"322842056088939","3","-0.7291836","-0.61707485","9.723335","sit down","1"
"322842076004252","3","-0.796257","-0.62426126","9.694589","sit down","1"
"322842095922689","3","-0.82500273","-0.6266568","9.728126","sit down","1"
"322842115838002","3","-0.82021177","-0.6434251","9.792804","sit down","1"
"322842135752116","3","-0.8872852","-0.6314477","9.720939","sit down","1"
"322842155667429","3","-0.93519473","-0.65300703","9.649075","sit down","1"
"322842175566544","3","-0.91603094","-0.6434251","9.723335","sit down","1"
"322842195481856","3","-0.8848897","-0.6506115","9.804781","sit down","1"
"322842215417116","3","-0.87051684","-0.6434251","9.792804","sit down","1"
"322842235332429","3","-0.94477665","-0.62186587","9.670634","sit down","1"
"322842255216544","3","-0.9759179","-0.60988843","9.620329","sit down","1"
"322842275131856","3","-0.94238114","-0.6266568","9.732917","sit down","1"
"322842295048054","3","-0.9208219","-0.6434251","9.811967","sit down","1"
"322842314963366","3","-0.906449","-0.61947036","9.756871","sit down","1"
"322842334902689","3","-0.91363543","-0.6074929","9.694589","sit down","1"
"322842354818002","3","-0.90165806","-0.597911","9.677821","sit down","1"
"322842374726075","3","-0.89447165","-0.602702","9.687403","sit down","1"
"322842394641387","3","-0.8872852","-0.61467934","9.689797","sit down","1"
"322842414566908","3","-0.8872852","-0.6290523","9.756871","sit down","1"
"322842434482221","3","-0.89447165","-0.6338432","9.742498","sit down","1"
"322842454404408","3","-0.9184264","-0.6290523","9.701775","sit down","1"
"322842474319721","3","-0.9256128","-0.6362387","9.716147","sit down","1"
"322842494200502","3","-0.9184264","-0.6362387","9.732917","sit down","1"
"322842514115814","3","-0.9208219","-0.61707485","9.742498","sit down","1"
"322842534029252","3","-0.93519473","-0.6266568","9.687403","sit down","1"
"322842553944564","3","-0.95196307","-0.6314477","9.67303","sit down","1"
"322842573854148","3","-0.93759024","-0.6266568","9.716147","sit down","1"
"322842593769460","3","-0.9567541","-0.61947036","9.744894","sit down","1"
"322842613687898","3","-0.9711269","-0.62186587","9.742498","sit down","1"
"322842633603210","3","-0.9639405","-0.6074929","9.713753","sit down","1"
"322842653516075","3","-0.93759024","-0.61947036","9.730521","sit down","1"
"322842673431387","3","-0.9280083","-0.6290523","9.737708","sit down","1"
"322842693376439","3","-0.9711269","-0.6314477","9.75208","sit down","1"
"322842713291752","3","-0.98310435","-0.6290523","9.74729","sit down","1"
"322842733174200","3","-0.9711269","-0.6458206","9.72573","sit down","1"
"322842753089512","3","-0.96873146","-0.61707485","9.72573","sit down","1"
"322842773010606","3","-0.9567541","-0.6290523","9.730521","sit down","1"
"322842792925919","3","-0.9567541","-0.6386341","9.783222","sit down","1"
"322842812854356","3","-0.9711269","-0.6314477","9.77364","sit down","1"
"322842832769669","3","-0.9711269","-0.6458206","9.7353115","sit down","1"
"322842852649877","3","-0.95914954","-0.6362387","9.687403","sit down","1"
"322842872565085","3","-0.95914954","-0.6314477","9.704171","sit down","1"
"322842892477689","3","-0.93519473","-0.61707485","9.7089615","sit down","1"
"322842912392898","3","-0.91124","-0.62186587","9.716147","sit down","1"
"322842932317064","3","-0.94717216","-0.6074929","9.680216","sit down","1"
"322842952232273","3","-0.95196307","-0.60988843","9.689797","sit down","1"
"322842972152481","3","-0.9327993","-0.60988843","9.732917","sit down","1"
"322842992067689","3","-0.89447165","-0.6266568","9.69938","sit down","1"
"322843011969044","3","-0.9184264","-0.6266568","9.668239","sit down","1"
"322843031884252","3","-0.94238114","-0.6338432","9.692194","sit down","1"
"322843051833158","3","-0.93519473","-0.61707485","9.69938","sit down","1"
"322843071748366","3","-0.9184264","-0.602702","9.696984","sit down","1"
"322843091628002","3","-0.92321736","-0.6338432","9.72573","sit down","1"
"322843111555189","3","-0.94477665","-0.6410296","9.732917","sit down","1"
"322843131457898","3","-0.9495676","-0.62426126","9.718544","sit down","1"
"322843151372116","3","-0.9735224","-0.6434251","9.74729","sit down","1"
"322843171287325","3","-0.9735224","-0.65779805","9.756871","sit down","1"
"322843191203471","3","-0.96873146","-0.6386341","9.737708","sit down","1"
"322843211118679","3","-0.95914954","-0.6074929","9.680216","sit down","1"
"322843231070137","3","-0.91124","-0.6074929","9.723335","sit down","1"
"322843250985346","3","-0.9208219","-0.6266568","9.74729","sit down","1"
"322843270872116","3","-0.91603094","-0.6122838","9.716147","sit down","1"
"322843290787377","3","-0.93519473","-0.61947036","9.72573","sit down","1"
"322843310721127","3","-0.94717216","-0.62186587","9.713753","sit down","1"
"322843330636439","3","-0.9280083","-0.61947036","9.706566","sit down","1"
"322843350547637","3","-0.93040377","-0.6290523","9.696984","sit down","1"
"322843370462950","3","-0.9399857","-0.6290523","9.694589","sit down","1"
"322843390372689","3","-0.9280083","-0.6314477","9.694589","sit down","1"
"322843410287950","3","-0.9327993","-0.62426126","9.72573","sit down","1"
"322843430203471","3","-0.91603094","-0.62186587","9.730521","sit down","1"
"322843450118783","3","-0.9184264","-0.6314477","9.696984","sit down","1"
"322843470029148","3","-0.93040377","-0.6338432","9.694589","sit down","1"
"322843489944408","3","-0.91603094","-0.60988843","9.728126","sit down","1"
"322843509856335","3","-0.9184264","-0.6122838","9.728126","sit down","1"
"322843529771596","3","-0.9280083","-0.62186587","9.742498","sit down","1"
"322843549682898","3","-0.9543586","-0.61947036","9.737708","sit down","1"
"322843569598158","3","-0.94238114","-0.61707485","9.718544","sit down","1"
"322843589507325","3","-0.94238114","-0.6362387","9.737708","sit down","1"
"322843609422585","3","-0.96633595","-0.62426126","9.720939","sit down","1"
"322843629340189","3","-0.94238114","-0.6266568","9.732917","sit down","1"
"322843649255450","3","-0.93759024","-0.61707485","9.749685","sit down","1"
"322843669161804","3","-0.93759024","-0.6314477","9.723335","sit down","1"
"322843689077064","3","-0.94477665","-0.6362387","9.749685","sit down","1"
"322843708966283","3","-0.92321736","-0.6338432","9.723335","sit down","1"
"322843728881544","3","-0.9399857","-0.6362387","9.692194","sit down","1"
"322843748817689","3","-0.95196307","-0.6314477","9.730521","sit down","1"
"322843768732898","3","-0.93519473","-0.62426126","9.718544","sit down","1"
"322843788629721","3","-0.9208219","-0.6338432","9.682611","sit down","1"
"322843808544929","3","-0.91363543","-0.6362387","9.69938","sit down","1"
"322843828460398","3","-0.91603094","-0.61707485","9.706566","sit down","1"
"322843848375606","3","-0.94238114","-0.6122838","9.716147","sit down","1"
"322843868279512","3","-0.94238114","-0.61707485","9.711357","sit down","1"
"322843888194721","3","-0.93519473","-0.60988843","9.737708","sit down","1"
"322843908114825","3","-0.9256128","-0.61467934","9.701775","sit down","1"
"322843928030033","3","-0.93519473","-0.6290523","9.682611","sit down","1"
"322843947943054","3","-0.94238114","-0.6362387","9.737708","sit down","1"
"322843967858262","3","-0.95196307","-0.62186587","9.7089615","sit down","1"
"322843987762689","3","-0.93759024","-0.61947036","9.701775","sit down","1"
"322844007677898","3","-0.92321736","-0.61707485","9.740103","sit down","1"
"322844027597221","3","-0.93519473","-0.6266568","9.730521","sit down","1"
"322844047512481","3","-0.9399857","-0.6266568","9.737708","sit down","1"
"322844067432273","3","-0.93759024","-0.61467934","9.737708","sit down","1"
"322844087347481","3","-0.95196307","-0.6362387","9.713753","sit down","1"
"322844107246700","3","-0.9399857","-0.6266568","9.72573","sit down","1"
"322844127161908","3","-0.9280083","-0.6362387","9.740103","sit down","1"
"322844147082689","3","-0.9495676","-0.62426126","9.7089615","sit down","1"
"322844166997741","3","-0.93759024","-0.62426126","9.677821","sit down","1"
"322844186916960","3","-0.9327993","-0.62186587","9.744894","sit down","1"
"322844206832012","3","-0.9327993","-0.61947036","9.72573","lay down","1"
"322844226758054","3","-0.9280083","-0.61467934","9.694589","lay down","1"
"322844246673106","3","-0.9256128","-0.61947036","9.723335","lay down","1"
"322844266556752","3","-0.9327993","-0.6290523","9.7089615","lay down","1"
"322844286471752","3","-0.9327993","-0.6338432","9.711357","lay down","1"
"322844306384304","3","-0.92321736","-0.6458206","9.716147","lay down","1"
"322844326299304","3","-0.91363543","-0.6386341","9.682611","lay down","1"
"322844346240554","3","-0.9184264","-0.6290523","9.687403","lay down","1"
"322844366155658","3","-0.93040377","-0.6266568","9.706566","lay down","1"
"322844386072064","3","-0.93759024","-0.62426126","9.720939","lay down","1"
"322844405987064","3","-0.9327993","-0.6314477","9.744894","lay down","1"
"322844425889356","3","-0.91363543","-0.6410296","9.716147","lay down","1"
"322844445804356","3","-0.9280083","-0.6458206","9.704171","lay down","1"
"322844465736075","3","-0.9399857","-0.65540254","9.692194","lay down","1"
"322844485651127","3","-0.9495676","-0.6434251","9.7353115","lay down","1"
"322844505532377","3","-0.93040377","-0.6290523","9.732917","lay down","1"
"322844525447377","3","-0.9184264","-0.60988843","9.687403","lay down","1"
"322844545357637","3","-0.94238114","-0.62426126","9.668239","lay down","1"
"322844565272637","3","-0.94238114","-0.6434251","9.754476","lay down","1"
"322844585200554","3","-0.9399857","-0.6410296","9.795198","lay down","1"
"322844605115554","3","-0.9256128","-0.6050974","9.764058","lay down","1"
"322844625008471","3","-0.93040377","-0.5859337","9.744894","lay down","1"
"322844644923523","3","-0.91603094","-0.6074929","9.69938","lay down","1"
"322844664832533","3","-0.9256128","-0.61947036","9.627516","lay down","1"
"322844684747585","3","-0.9711269","-0.6122838","9.72573","lay down","1"
"322844704687116","3","-0.96633595","-0.6434251","9.819154","lay down","1"
"322844724602169","3","-0.92321736","-0.6266568","9.730521","lay down","1"
"322844744479460","3","-0.9711269","-0.66737986","9.677821","lay down","1"
"322844764394460","3","-0.9711269","-0.7200804","9.792804","lay down","1"
"322844784303835","3","-0.9567541","-0.6721709","9.886227","lay down","1"
"322844804218887","3","-0.94477665","-0.65300703","9.687403","lay down","1"
"322844824166491","3","-0.8848897","-0.6290523","9.536487","lay down","1"
"322844844081544","3","-0.8369801","-0.5907246","9.649075","lay down","1"
"322844863957273","3","-0.846562","-0.6074929","9.807176","lay down","1"
"322844883872325","3","-0.93040377","-0.62426126","9.835922","lay down","1"
"322844903783991","3","-1.0142455","-0.62186587","9.749685","lay down","1"
"322844923699044","3","-0.9854998","-0.61467934","9.74729","lay down","1"
"322844943613002","3","-0.92321736","-0.61707485","9.649075","lay down","1"
"322844963528054","3","-0.89207613","-0.60988843","9.60356","lay down","1"
"322844983466335","3","-0.91603094","-0.5547924","9.608352","lay down","1"
"322845003381387","3","-0.99029076","-0.46855518","9.524509","lay down","1"
"322845023289460","3","-1.0549687","-0.5044874","9.471808","lay down","1"
"322845043204512","3","-0.9639405","-0.70570755","9.958092","lay down","1"
"322845063114252","3","-0.8824942","-0.74163973","10.326995","lay down","1"
"322845083029304","3","-0.91603094","-0.6841483","9.7880125","lay down","1"
"322845102925814","3","-0.8681213","-0.6266568","9.407132","lay down","1"
"322845122840866","3","-0.90165806","-0.5619788","9.57242","lay down","1"
"322845142763314","3","-0.98789525","-0.5523969","9.749685","lay down","1"
"322845162678366","3","-0.9639405","-0.6290523","9.766453","lay down","1"
"322845182586908","3","-0.96633595","-0.6362387","9.713753","lay down","1"
"322845202497689","3","-0.9040535","-0.6074929","9.665843","lay down","1"
"322845222412429","3","-0.79865247","-0.58114266","9.790408","lay down","1"
"322845242325658","3","-0.78907055","-0.6074929","9.874249","lay down","1"
"322845262240398","3","-0.91603094","-0.66977537","9.737708","lay down","1"
"322845282153002","3","-0.89447165","-0.6266568","9.62991","lay down","1"
"322845302067689","3","-0.8441666","-0.58114266","9.776035","lay down","1"
"322845321979721","3","-0.83458465","-0.56676984","9.814363","lay down","1"
"322845341894460","3","-0.91124","-0.602702","9.658657","lay down","1"
"322845361790502","3","-0.9208219","-0.6338432","9.560442","lay down","1"
"322845381705241","3","-0.91603094","-0.6003065","9.696984","lay down","1"
"322845401616023","3","-0.94477665","-0.5643743","9.720939","lay down","1"
"322845421530762","3","-0.94238114","-0.5883291","9.665843","lay down","1"
"322845441427794","3","-0.9208219","-0.6458206","9.62991","lay down","1"
"322845461342533","3","-0.9208219","-0.60988843","9.728126","lay down","1"
"322845481252846","3","-0.9280083","-0.5452105","9.72573","lay down","1"
"322845501167585","3","-0.8753078","-0.61467934","9.689797","lay down","1"
"322845521100241","3","-0.9495676","-0.66977537","9.685007","lay down","1"
"322845541014981","3","-1.0837145","-0.6434251","9.670634","lay down","1"
"322845560924304","3","-0.9639405","-0.6074929","9.804781","lay down","1"
"322845580839044","3","-0.98789525","-0.6506115","9.749685","lay down","1"
"322845600734356","3","-1.0549687","-0.65540254","9.505346","lay down","1"
"322845620649096","3","-1.0405958","-0.61707485","9.620329","lay down","1"
"322845640594252","3","-0.9543586","-0.57635164","9.811967","lay down","1"
"322845660508991","3","-0.89926255","-0.60988843","9.771244","lay down","1"
"322845680387585","3","-0.89447165","-0.58114266","9.639493","lay down","1"
"322845700302325","3","-0.85614395","-0.5547924","9.5436735","lay down","1"
"322845720213419","3","-0.81062984","-0.56676984","9.692194","lay down","1"
"322845740128158","3","-0.8321892","-0.6290523","9.795198","lay down","1"
"322845760038991","3","-0.95196307","-0.65300703","9.701775","lay down","1"
"322845779953731","3","-1.0525732","-0.6458206","9.565233","lay down","1"
"322845799868471","3","-1.0549687","-0.6721709","9.562838","lay down","1"
"322845819783210","3","-0.96633595","-0.61707485","9.534092","lay down","1"
"322845839698939","3","-1.0429913","-0.597911","9.263403","lay down","1"
"322845859613679","3","-1.577183","-0.7320578","9.524509","lay down","1"
"322845879560762","3","-2.216776","-0.74163973","10.379696","lay down","1"
"322845899475502","3","-2.0754423","-0.5907246","10.75339","lay down","1"
"322845919384512","3","-1.2729573","-0.69852114","10.116193","lay down","1"
"322845939299252","3","-0.796257","-0.83027244","9.203516","lay down","1"
"322845959189148","3","-0.906449","-0.7248714","9.2466345","lay down","1"
"322845979103887","3","-1.1483923","-0.66019344","10.017979","lay down","1"
"322845999042116","3","-1.4933412","-0.54281497","9.931741","lay down","1"
"322846018956856","3","-1.5843694","-0.5068828","9.500555","lay down","1"
"322846038850294","3","-1.3304486","-0.58114266","9.541278","lay down","1"
"322846058765033","3","-1.1412059","-0.6362387","9.5173235","lay down","1"
"322846078678210","3","-1.1795335","-0.6817528","9.574815","lay down","1"
"322846098592950","3","-1.2777481","-0.7584082","9.646679","lay down","1"
"322846118542064","3","-1.411895","-0.7584082","9.764058","lay down","1"
"322846138456804","3","-1.4382453","-0.6721709","9.816758","lay down","1"
"322846158339669","3","-1.507714","-0.66737986","9.4239","lay down","1"
"322846178254408","3","-1.567601","-0.6386341","9.546069","lay down","1"
"322846198167689","3","-1.6107197","-0.6266568","9.912578","lay down","1"
"322846218082429","3","-1.5172961","-0.70091665","9.871854","lay down","1"
"322846238022116","3","-1.4861548","-0.74403524","9.610746","lay down","1"
"322846257936700","3","-1.5699966","-0.6769619","9.330476","lay down","1"
"322846277820398","3","-1.7304935","-0.57395625","9.332871","lay down","1"
"322846297734981","3","-1.802358","-0.62426126","9.670634","lay down","1"
"322846317653314","3","-1.6634202","-0.6410296","9.936532","lay down","1"
"322846337567898","3","-1.4622","-0.547606","9.960486","lay down","1"
"322846357502221","3","-1.4406407","-0.44220492","9.62991","lay down","1"
"322846377416804","3","-1.5172961","-0.47813705","9.4239","lay down","1"
"322846397309929","3","-1.5843694","-0.5571879","9.560442","lay down","1"
"322846417224512","3","-1.6514428","-0.57395625","9.685007","lay down","1"
"322846437139981","3","-1.6322789","-0.5883291","9.778431","lay down","1"
"322846457054564","3","-1.6466519","-0.58114266","9.6562605","lay down","1"
"322846476979148","3","-1.7041433","-0.5619788","9.665843","lay down","1"
"322846496893731","3","-1.7376801","-0.5643743","9.831131","lay down","1"
"322846516806752","3","-1.8598495","-0.5859337","9.641888","lay down","1"
"322846536721335","3","-1.8838042","-0.6769619","9.641888","lay down","1"
"322846556669460","3","-1.63707","-0.6841483","9.711357","lay down","1"
"322846576584044","3","-1.5963469","-0.5595834","9.560442","lay down","1"
"322846596496700","3","-1.7185162","-0.47574165","9.32329","lay down","1"
"322846616411283","3","-1.797567","-0.54281497","9.4646225","lay down","1"
"322846636330137","3","-1.8478721","-0.597911","9.759267","lay down","1"
"322846656244669","3","-1.962855","-0.5883291","9.802386","lay down","1"
"322846676164096","3","-1.9484822","-0.57395625","9.622725","lay down","1"
"322846696078575","3","-1.9460868","-0.5955156","9.57242","lay down","1"
"322846715995398","3","-1.9700415","-0.6482161","9.582001","lay down","1"
"322846735909981","3","-2.0610695","-0.6913347","9.771244","lay down","1"
"322846755827794","3","-2.1281428","-0.8087132","9.991628","lay down","1"
"322846775742377","3","-1.9484822","-0.7296624","10.185662","lay down","1"
"322846795657950","3","-1.7736123","-0.53323317","9.696984","lay down","1"
"322846815572533","3","-1.7065388","-0.44460037","9.1939335","lay down","1"
"322846835490762","3","-1.5460417","-0.48771903","9.215493","lay down","1"
"322846855405346","3","-1.6969569","-0.6745664","9.555651","lay down","1"
"322846875312846","3","-1.967646","-0.7128941","9.859877","lay down","1"
"322846895227429","3","-2.2311487","-0.6745664","9.869459","lay down","1"
"322846915140033","3","-2.0610695","-0.53083766","9.893414","lay down","1"
"322846935054616","3","-1.6634202","-0.37513152","9.77364","lay down","1"
"322846954954512","3","-1.512505","-0.42064562","9.129256","lay down","1"
"322846974869044","3","-1.6442564","-0.6458206","8.951991","lay down","1"
"322846994763783","3","-1.8814087","-0.8829731","9.802386","lay down","1"
"322847014678366","3","-2.053883","-0.8015268","10.42521","lay down","1"
"322847034618939","3","-1.9916008","-0.547606","10.099425","lay down","1"
"322847054533523","3","-1.9005727","-0.6865438","9.256216","lay down","1"
"322847074448679","3","-1.4693866","-0.60988843","9.332871","lay down","1"
"322847094363262","3","-1.4550136","-0.74882615","9.864668","lay down","1"
"322847114234669","3","-1.6059287","-0.9548373","9.941323","lay down","1"
"322847134149200","3","-1.5915558","-0.7991313","9.608352","lay down","1"
"322847154067481","3","-1.4406407","-0.57635164","9.428691","lay down","1"
"322847173982064","3","-1.4765729","-0.6338432","9.59877","lay down","1"
"322847193926700","3","-1.4166859","-0.6865438","9.754476","lay down","1"
"322847213841283","3","-1.1843245","-0.66498446","9.646679","lay down","1"
"322847233723471","3","-0.99029076","-0.6314477","9.512533","lay down","1"
"322847253638054","3","-1.0980873","-0.5931201","9.558047","lay down","1"
"322847273549148","3","-1.2777481","-0.48771903","9.641888","lay down","1"
"322847293463627","3","-1.3783584","-0.35357222","9.620329","lay down","1"
"322847313404512","3","-1.3136804","-0.42304108","9.4239","lay down","1"
"322847333318939","3","-1.2058839","-0.5643743","9.459832","lay down","1"
"322847353202481","3","-1.2322341","-0.547606","9.661052","lay down","1"
"322847373116908","3","-1.3256577","-0.3439903","9.7880125","lay down","1"
"322847393026544","3","-1.2801437","-0.53562856","9.907787","lay down","1"
"322847412940971","3","-1.2729573","-0.6841483","9.62991","lay down","1"
"322847432875919","3","-1.2825391","-0.6434251","9.435877","lay down","1"
"322847452790346","3","-1.2753527","-0.47095063","9.778431","lay down","1"
"322847472683835","3","-1.2130703","-0.41585466","9.970069","lay down","1"
"322847492598262","3","-1.1891155","-0.54041946","9.701775","lay down","1"
"322847512511439","3","-1.2873302","-0.6266568","9.380781","lay down","1"
"322847532425866","3","-1.3472171","-0.61707485","9.459832","lay down","1"
"322847552362637","3","-1.3304486","-0.5907246","9.77364","lay down","1"
"322847572277064","3","-1.356799","-0.52125573","9.840713","lay down","1"
"322847592164773","3","-1.4454317","-0.54041946","9.780826","lay down","1"
"322847612079200","3","-1.402313","-0.57395625","9.706566","lay down","1"
"322847631994669","3","-1.3256577","-0.52365124","9.6562605","lay down","1"
"322847651909096","3","-1.2561889","-0.46615967","9.627516","lay down","1"
"322847671856700","3","-1.2513978","-0.48292807","9.728126","lay down","1"
"322847691771127","3","-1.2130703","-0.5571879","9.785617","lay down","1"
"322847711665762","3","-1.2561889","-0.57156074","9.814363","lay down","1"
"322847731580189","3","-1.371172","-0.5164647","9.883832","lay down","1"
"322847751495606","3","-1.371172","-0.5068828","9.828736","lay down","1"
"322847771410033","3","-1.1100647","-0.54041946","9.646679","lay down","1"
"322847791300814","3","-0.9567541","-0.5691652","9.57242","lay down","1"
"322847811215241","3","-0.98310435","-0.54041946","9.574815","lay down","1"
"322847831145606","3","-1.0046636","-0.5140693","9.732917","lay down","1"
"322847851060085","3","-1.0645506","-0.5164647","9.744894","lay down","1"
"322847870974148","3","-1.1603698","-0.5188602","9.589188","lay down","1"
"322847890888575","3","-1.1939064","-0.5523969","9.632307","lay down","1"
"322847910797898","3","-1.1795335","-0.57635164","9.737708","lay down","1"
"322847930712325","3","-1.1531833","-0.5523969","9.780826","lay down","1"
"322847950633887","3","-1.1699517","-0.52365124","9.696984","lay down","1"
"322847970548366","3","-1.2082794","-0.52604675","9.6562605","lay down","1"
"322847990459877","3","-1.2082794","-0.53562856","9.69938","lay down","1"
"322848010374304","3","-1.1963019","-0.5500015","9.737708","lay down","1"
"322848030274616","3","-1.2130703","-0.5691652","9.711357","lay down","1"
"322848050189044","3","-1.2178612","-0.5835382","9.689797","lay down","1"
"322848070120189","3","-1.1963019","-0.5691652","9.730521","lay down","1"
"322848090034616","3","-1.1795335","-0.53562856","9.764058","lay down","1"
"322848109935346","3","-1.1627653","-0.5044874","9.718544","lay down","1"
"322848129849773","3","-1.1627653","-0.5140693","9.696984","lay down","1"
"322848149777950","3","-1.1244376","-0.49730095","9.7353115","lay down","1"
"322848169692377","3","-1.131624","-0.5044874","9.728126","lay down","1"
"322848189598314","3","-1.1459968","-0.52365124","9.7089615","sit up","1"
"322848209512689","3","-1.1507878","-0.5140693","9.689797","sit up","1"
"322848229446804","3","-1.1148556","-0.5068828","9.69938","sit up","1"
"322848249361231","3","-1.1148556","-0.5188602","9.67303","sit up","1"
"322848269274721","3","-1.1196465","-0.52604675","9.689797","sit up","1"
"322848289189148","3","-1.1292286","-0.5523969","9.732917","sit up","1"
"322848309100189","3","-1.1436014","-0.5571879","9.680216","sit up","1"
"322848329014616","3","-1.1483923","-0.5523969","9.7353115","sit up","1"
"322848348925398","3","-1.1579742","-0.54281497","9.723335","sit up","1"
"322848368839825","3","-1.1627653","-0.5452105","9.685007","sit up","1"
"322848388751231","3","-1.1771381","-0.53802407","9.718544","sit up","1"
"322848408665658","3","-1.1747426","-0.53323317","9.744894","sit up","1"
"322848428578106","3","-1.1651607","-0.53083766","9.72573","sit up","1"
"322848448492533","3","-1.1747426","-0.52604675","9.723335","sit up","1"
"322848468412377","3","-1.1531833","-0.53083766","9.730521","sit up","1"
"322848488326804","3","-1.1507878","-0.53562856","9.7089615","sit up","1"
"322848508212377","3","-1.1388104","-0.5140693","9.7089615","sit up","1"
"322848528126804","3","-1.1459968","-0.5020919","9.713753","sit up","1"
"322848548068991","3","-1.1459968","-0.47095063","9.685007","sit up","1"
"322848567983419","3","-1.1459968","-0.5020919","9.627516","sit up","1"
"322848587899929","3","-1.1579742","-0.5571879","9.742498","sit up","1"
"322848607814408","3","-1.1412059","-0.5931201","9.795198","sit up","1"
"322848627728471","3","-1.131624","-0.5595834","9.615538","sit up","1"
"322848647642950","3","-1.1603698","-0.57635164","9.574815","sit up","1"
"322848667562064","3","-1.1651607","-0.5500015","9.704171","sit up","1"
"322848687476491","3","-1.2729573","-0.52844214","9.689797","sit up","1"
"322848707396179","3","-1.241816","-0.547606","9.65147","sit up","1"
"322848727310658","3","-1.1172512","-0.57874715","9.754476","sit up","1"
