"Timestamp","Accuracy","Acceleration X","Acceleration Y","Acceleration Z","Label","Cycle"
"68859516722853","3","0.058928847","0.6165966","12.157141","stand up","0"
"68859536616811","3","-1.457409","-0.24338022","9.081346","none","0"
"68859556526447","3","-0.82739824","-0.25056663","7.5003304","none","0"
"68859576443270","3","-0.29799744","0.26685673","9.560442","none","0"
"68859596376238","3","-0.6477373","0.065636516","11.043242","none","0"
"68859616293113","3","-0.5950368","0.012935996","9.67303","none","0"
"68859636220718","3","-0.5615001","0.13989636","9.203516","none","0"
"68859656137593","3","-0.6189916","0.063241065","10.008397","none","0"
"68859676092072","3","-0.626178","0.07042748","9.792804","none","0"
"68859696008947","3","-0.59024584","0.041681737","9.711357","none","0"
"68859715895040","3","-0.58305943","0.09677774","9.74729","none","0"
"68859735811915","3","-0.57587296","0.08480036","9.742498","none","0"
"68859755732436","3","-0.59743226","0.058450073","9.766453","none","0"
"68859775649311","3","-0.59743226","0.05365914","9.792804","none","0"
"68859795577436","3","-0.6046187","0.07282296","9.720939","none","0"
"68859815494311","3","-0.57826847","0.05126366","9.711357","none","0"
"68859835434624","3","-0.6094097","0.07282296","9.828736","none","0"
"68859855351499","3","-0.58785033","0.089591295","9.833527","none","0"
"68859875243530","3","-0.6189916","0.056054622","9.720939","none","0"
"68859895160405","3","-0.61180514","0.05126366","9.749685","none","0"
"68859915098374","3","-0.5950368","0.063241065","9.780826","none","0"
"68859935015197","3","-0.58305943","0.060845554","9.737708","none","0"
"68859954951395","3","-0.58785033","0.07521844","9.768848","none","0"
"68859974868218","3","-0.61420065","0.07282296","9.790408","none","0"
"68859994785770","3","-0.59982777","0.039286286","9.661052","none","0"
"68860014702593","3","-0.6094097","0.07042748","9.69938","none","0"
"68860034599311","3","-0.5854549","0.10875514","9.881435","none","0"
"68860054516186","3","-0.61180514","0.08240485","9.771244","none","0"
"68860074453009","3","-0.5950368","0.0464727","9.685007","none","0"
"68860094369884","3","-0.6022232","0.08240485","9.761662","none","0"
"68860114293999","3","-0.5638956","0.068032","9.737708","none","0"
"68860134210874","3","-0.5950368","0.04886818","9.692194","none","0"
"68860154116968","3","-0.59982777","0.065636516","9.823945","none","0"
"68860174033843","3","-0.59743226","0.0800094","9.814363","none","0"
"68860193969207","3","-0.58785033","0.056054622","9.682611","none","0"
"68860213886030","3","-0.5950368","0.060845554","9.744894","none","0"
"68860233797280","3","-0.61420065","0.08240485","9.814363","none","0"
"68860253714155","3","-0.59264135","0.0800094","9.754476","none","0"
"68860273631603","3","-0.5950368","0.063241065","9.74729","none","0"
"68860293548478","3","-0.59264135","0.065636516","9.778431","none","0"
"68860313449728","3","-0.5950368","0.08480036","9.730521","none","0"
"68860333366551","3","-0.5950368","0.056054622","9.754476","none","0"
"68860353310665","3","-0.59743226","0.068032","9.780826","none","0"
"68860373227540","3","-0.59264135","0.07042748","9.77364","none","0"
"68860393110561","3","-0.59264135","0.07521844","9.742498","none","0"
"68860413027436","3","-0.61180514","0.065636516","9.754476","none","0"
"68860432973374","3","-0.59024584","0.068032","9.785617","none","0"
"68860452890249","3","-0.5806639","0.05126366","9.706566","none","0"
"68860472818165","3","-0.5806639","0.063241065","9.720939","none","0"
"68860492735040","3","-0.61180514","0.09677774","9.814363","none","0"
"68860512648738","3","-0.61420065","0.091986775","9.807176","none","0"
"68860532565561","3","-0.57826847","0.041681737","9.728126","none","0"
"68860552473165","3","-0.57826847","0.068032","9.728126","none","0"
"68860572390040","3","-0.5638956","0.07761392","9.780826","none","0"
"68860592306603","3","-0.61420065","0.056054622","9.730521","none","0"
"68860612223426","3","-0.61180514","0.068032","9.764058","none","0"
"68860632155145","3","-0.63336444","0.091986775","9.819154","none","0"
"68860652072020","3","-0.57587296","0.058450073","9.72573","none","0"
"68860671983686","3","-0.58305943","0.05126366","9.696984","none","0"
"68860691900561","3","-0.58305943","0.08240485","9.77364","none","0"
"68860711820301","3","-0.59264135","0.08240485","9.749685","none","0"
"68860731737124","3","-0.6165961","0.068032","9.780826","none","0"
"68860751648218","3","-0.62138706","0.060845554","9.790408","none","0"
"68860771565093","3","-0.6046187","0.065636516","9.737708","none","0"
"68860791484780","3","-0.57826847","0.07042748","9.716147","none","0"
"68860811401655","3","-0.57826847","0.07282296","9.754476","none","0"
"68860831322280","3","-0.5950368","0.07761392","9.807176","none","0"
"68860851239155","3","-0.6189916","0.063241065","9.771244","none","0"
"68860871175509","3","-0.6189916","0.056054622","9.742498","none","0"
"68860891092332","3","-0.59982777","0.08240485","9.742498","none","0"
"68860911018582","3","-0.57587296","0.08240485","9.756871","none","0"
"68860930935457","3","-0.59743226","0.07761392","9.756871","none","0"
"68860950828009","3","-0.6046187","0.068032","9.7353115","none","0"
"68860970744884","3","-0.6094097","0.07282296","9.761662","none","0"
"68860990667853","3","-0.59982777","0.068032","9.74729","none","0"
"68861010584728","3","-0.5806639","0.060845554","9.7353115","none","0"
"68861030522853","3","-0.57826847","0.068032","9.749685","none","0"
"68861050439728","3","-0.59982777","0.0800094","9.761662","none","0"
"68861070365770","3","-0.61180514","0.060845554","9.740103","none","0"
"68861090282593","3","-0.6094097","0.060845554","9.740103","none","0"
"68861110177280","3","-0.58305943","0.07042748","9.756871","none","0"
"68861130094155","3","-0.5806639","0.060845554","9.785617","none","0"
"68861150020561","3","-0.59743226","0.065636516","9.764058","none","0"
"68861169937436","3","-0.57587296","0.068032","9.730521","none","0"
"68861189887488","3","-0.57826847","0.032099843","9.696984","none","0"
"68861209804363","3","-0.63336444","0.09917322","9.778431","none","0"
"68861229707332","3","-0.5734775","0.11833705","9.886227","none","0"
"68861249624155","3","-0.6189916","0.036890775","9.7353115","none","0"
"68861269509572","3","-0.56868654","0.039286286","9.668239","none","0"
"68861289426447","3","-0.5351498","0.07042748","9.768848","none","0"
"68861309399832","3","-0.59982777","0.056054622","9.728126","none","0"
"68861329316707","3","-0.5734775","0.09917322","9.74729","none","0"
"68861349242228","3","-0.6621102","0.101568714","9.895809","none","0"
"68861369159051","3","-0.6046187","0.039286286","9.723335","none","0"
"68861389071707","3","-0.6022232","0.05126366","9.59877","none","0"
"68861408988582","3","-0.54712725","0.065636516","9.82634","none","0"
"68861428897436","3","-0.58305943","0.08719584","9.77364","none","0"
"68861448814259","3","-0.6165961","0.063241065","9.74729","none","0"
"68861468721707","3","-0.6405509","0.063241065","9.82634","none","0"
"68861488638582","3","-0.5950368","0.056054622","9.740103","none","0"
"68861508563009","3","-0.5615001","0.056054622","9.6562605","none","0"
"68861528479884","3","-0.56629103","0.07761392","9.785617","none","0"
"68861548413530","3","-0.59982777","0.07761392","9.819154","none","0"
"68861568331759","3","-0.626178","0.068032","9.732917","none","0"
"68861588240353","3","-0.62138706","0.04886818","9.768848","none","0"
"68861608158530","3","-0.5950368","0.063241065","9.766453","none","0"
"68861628082124","3","-0.5734775","0.07282296","9.740103","none","0"
"68861648000353","3","-0.5950368","0.08480036","9.759267","none","0"
"68861667915509","3","-0.6070142","0.07042748","9.783222","none","0"
"68861687833738","3","-0.6285735","0.056054622","9.75208","none","0"
"68861707751030","3","-0.6070142","0.05126366","9.74729","none","0"
"68861727669259","3","-0.58785033","0.07521844","9.754476","none","0"
"68861747568426","3","-0.58305943","0.08240485","9.75208","none","0"
"68861767486707","3","-0.6070142","0.07042748","9.776035","none","0"
"68861787407384","3","-0.61180514","0.07282296","9.776035","none","0"
"68861807325613","3","-0.6070142","0.063241065","9.759267","none","0"
"68861827262905","3","-0.6022232","0.07521844","9.74729","none","0"
"68861847181134","3","-0.5854549","0.07521844","9.77364","none","0"
"68861867086186","3","-0.5734775","0.063241065","9.759267","none","0"
"68861887004311","3","-0.571082","0.063241065","9.72573","none","0"
"68861906918947","3","-0.61180514","0.091986775","9.790408","none","0"
"68861926837176","3","-0.6405509","0.12073253","9.845504","none","0"
"68861946780301","3","-0.56629103","0.05126366","9.740103","none","0"
"68861966698530","3","-0.6094097","0.020122439","9.665843","none","0"
"68861986598686","3","-0.61420065","0.1351054","9.833527","none","0"
"68862006516915","3","-0.53994083","0.060845554","9.82634","none","0"
"68862026447384","3","-0.6477373","0.02251792","9.586792","none","0"
"68862046365613","3","-0.54473174","0.068032","9.77364","none","0"
"68862066272020","3","-0.6621102","0.12312801","9.895809","none","0"
"68862086190197","3","-0.5423363","0.04886818","9.668239","none","0"
"68862106119311","3","-0.6381554","0.07042748","9.689797","none","0"
"68862126037540","3","-0.571082","0.056054622","9.902996","none","0"
"68862145946030","3","-0.6165961","0.058450073","9.62991","none","0"
"68862165864259","3","-0.5734775","0.056054622","9.694589","none","0"
"68862185785926","3","-0.5950368","0.091986775","9.888623","none","0"
"68862205704103","3","-0.6094097","0.08719584","9.759267","none","0"
"68862225620145","3","-0.59024584","0.0464727","9.6562605","none","0"
"68862245538374","3","-0.6022232","0.05365914","9.790408","none","0"
"68862265467488","3","-0.5734775","0.065636516","9.795198","none","0"
"68862285385718","3","-0.59743226","0.0800094","9.670634","none","0"
"68862305309832","3","-0.59982777","0.07521844","9.816758","none","0"
"68862325228061","3","-0.62138706","0.08480036","9.785617","none","0"
"68862345157853","3","-0.5734775","0.068032","9.687403","none","0"
"68862365076030","3","-0.58305943","0.068032","9.730521","none","0"
"68862384989155","3","-0.58785033","0.07042748","9.809572","none","0"
"68862404907384","3","-0.61420065","0.07761392","9.737708","none","0"
"68862424814103","3","-0.59024584","0.07042748","9.728126","none","0"
"68862444732280","3","-0.6070142","0.058450073","9.75208","none","0"
"68862464667853","3","-0.6094097","0.04886818","9.761662","none","0"
"68862484586030","3","-0.57587296","0.05365914","9.740103","none","0"
"68862504517384","3","-0.59982777","0.07521844","9.771244","none","0"
"68862524435613","3","-0.61180514","0.063241065","9.749685","none","0"
"68862544355509","3","-0.6070142","0.07761392","9.780826","none","0"
"68862564273738","3","-0.5734775","0.068032","9.783222","none","0"
"68862584200561","3","-0.57587296","0.05365914","9.718544","none","0"
"68862604119363","3","-0.5615001","0.058450073","9.749685","none","0"
"68862624037645","3","-0.6094097","0.07761392","9.7880125","none","0"
"68862643956447","3","-0.59982777","0.07042748","9.740103","none","0"
"68862663845613","3","-0.6094097","0.08480036","9.742498","none","0"
"68862683764415","3","-0.59264135","0.060845554","9.795198","none","0"
"68862703675718","3","-0.5806639","0.058450073","9.730521","none","0"
"68862723594520","3","-0.5950368","0.063241065","9.744894","none","0"
"68862743563738","3","-0.58305943","0.08480036","9.804781","none","0"
"68862763482540","3","-0.6022232","0.07282296","9.744894","none","0"
"68862783368895","3","-0.6094097","0.065636516","9.713753","none","0"
"68862803287697","3","-0.57587296","0.091986775","9.807176","none","0"
"68862823240197","3","-0.5950368","0.065636516","9.778431","none","0"
"68862843158999","3","-0.5806639","0.0464727","9.716147","none","0"
"68862863066968","3","-0.59743226","0.07521844","9.771244","none","0"
"68862882985770","3","-0.6046187","0.07521844","9.780826","none","0"
"68862902906811","3","-0.59982777","0.056054622","9.696984","none","0"
"68862922825613","3","-0.57587296","0.07761392","9.77364","none","0"
"68862942739259","3","-0.57826847","0.065636516","9.804781","none","0"
"68862962658061","3","-0.6094097","0.063241065","9.732917","none","0"
"68862982582697","3","-0.6046187","0.07761392","9.74729","none","0"
"68863002501499","3","-0.59743226","0.07761392","9.77364","none","0"
"68863022412280","3","-0.58305943","0.058450073","9.718544","none","0"
"68863042331082","3","-0.57826847","0.060845554","9.723335","none","0"
"68863062243947","3","-0.58305943","0.07282296","9.785617","none","0"
"68863082162749","3","-0.6453419","0.10875514","9.816758","none","0"
"68863102089103","3","-0.5854549","0.08480036","9.804781","none","0"
"68863122007905","3","-0.59024584","0.032099843","9.704171","none","0"
"68863141935665","3","-0.56868654","0.04886818","9.675425","none","0"
"68863161854468","3","-0.56629103","0.09677774","9.797595","none","0"
"68863181751030","3","-0.61420065","0.08719584","9.7880125","none","0"
"68863201669884","3","-0.59024584","0.058450073","9.744894","none","0"
"68863221591343","3","-0.6381554","0.08719584","9.821548","none","0"
"68863241510145","3","-0.571082","0.058450073","9.718544","none","0"
"68863261437332","3","-0.57826847","0.065636516","9.665843","none","0"
"68863281356134","3","-0.5638956","0.08480036","9.821548","none","0"
"68863301273634","3","-0.6285735","0.094382286","9.780826","none","0"
"68863321192436","3","-0.6094097","0.058450073","9.718544","none","0"
"68863341090822","3","-0.6094097","0.05126366","9.756871","none","0"
"68863361009624","3","-0.5734775","0.05365914","9.778431","none","0"
"68863380943374","3","-0.58305943","0.068032","9.728126","none","0"
"68863400862228","3","-0.58785033","0.07761392","9.756871","none","0"
"68863420776447","3","-0.6094097","0.07761392","9.7880125","none","0"
"68863440695249","3","-0.6165961","0.05126366","9.718544","none","0"
"68863460610249","3","-0.58785033","0.039286286","9.74729","none","0"
"68863480529103","3","-0.571082","0.065636516","9.766453","none","0"
"68863500453999","3","-0.5806639","0.07042748","9.761662","none","0"
"68863520372801","3","-0.59743226","0.07042748","9.761662","sit down","0"
"68863540288061","3","-0.6094097","0.056054622","9.766453","sit down","0"
"68863560206915","3","-0.6094097","0.065636516","9.732917","sit down","0"
"68863580116186","3","-0.59024584","0.0800094","9.744894","sit down","0"
"68863600035040","3","-0.5615001","0.0800094","9.764058","sit down","0"
"68863619958270","3","-0.57826847","0.07042748","9.776035","sit down","0"
"68863639876759","3","-0.6022232","0.05365914","9.756871","sit down","0"
"68863659727905","3","-0.6022232","0.060845554","9.761662","sit down","0"
"68863679646395","3","-0.5854549","0.07042748","9.754476","sit down","0"
"68863699630249","3","-0.57587296","0.063241065","9.771244","sit down","0"
"68863719548738","3","-0.59743226","0.063241065","9.771244","sit down","0"
"68863739404155","3","-0.59264135","0.063241065","9.723335","sit down","0"
"68863759322697","3","-0.6237825","0.065636516","9.75208","sit down","0"
"68863779289207","3","-0.6070142","0.07042748","9.776035","sit down","0"
"68863799207697","3","-0.61420065","0.0800094","9.77364","sit down","0"
"68863819130718","3","-0.59264135","0.060845554","9.75208","sit down","0"
"68863839049207","3","-0.5854549","0.07282296","9.718544","sit down","0"
"68863858968426","3","-0.5854549","0.058450073","9.744894","sit down","0"
"68863878886915","3","-0.6094097","0.060845554","9.778431","sit down","0"
"68863898805665","3","-0.5854549","0.065636516","9.749685","sit down","0"
"68863918724155","3","-0.5806639","0.068032","9.756871","sit down","0"
"68863938646759","3","-0.5854549","0.08240485","9.766453","sit down","0"
"68863958565249","3","-0.59024584","0.07761392","9.766453","sit down","0"
"68863978493374","3","-0.6046187","0.068032","9.761662","sit down","0"
"68863998411863","3","-0.58785033","0.068032","9.749685","sit down","0"
"68864018320093","3","-0.58305943","0.05126366","9.72573","sit down","0"
"68864038238582","3","-0.59264135","0.058450073","9.74729","sit down","0"
"68864058142801","3","-0.5950368","0.07282296","9.776035","sit down","0"
"68864078061290","3","-0.5950368","0.056054622","9.776035","sit down","0"
"68864097994051","3","-0.5950368","0.058450073","9.74729","sit down","0"
"68864117912540","3","-0.6046187","0.060845554","9.744894","sit down","0"
"68864137834155","3","-0.5854549","0.05365914","9.723335","sit down","0"
"68864157752645","3","-0.58305943","0.056054622","9.720939","sit down","0"
"68864177646186","3","-0.6070142","0.08240485","9.780826","sit down","0"
"68864197564676","3","-0.62138706","0.07042748","9.783222","sit down","0"
"68864217472801","3","-0.59982777","0.04886818","9.732917","sit down","0"
"68864237391238","3","-0.58305943","0.058450073","9.737708","sit down","0"
"68864257307801","3","-0.571082","0.068032","9.768848","sit down","0"
"68864277226290","3","-0.58305943","0.07042748","9.7353115","sit down","0"
"68864297115405","3","-0.61180514","0.068032","9.785617","sit down","0"
"68864317033895","3","-0.59982777","0.08240485","9.783222","sit down","0"
"68864336991968","3","-0.61180514","0.063241065","9.742498","sit down","0"
"68864356910457","3","-0.57587296","0.05365914","9.749685","sit down","0"
"68864376826603","3","-0.5734775","0.058450073","9.737708","sit down","0"
"68864396745093","3","-0.56868654","0.058450073","9.704171","sit down","0"
"68864416641759","3","-0.6453419","0.08240485","9.768848","sit down","0"
"68864436560249","3","-0.6046187","0.08240485","9.835922","sit down","0"
"68864456481915","3","-0.61180514","0.063241065","9.730521","sit down","0"
"68864476400405","3","-0.5591046","0.0464727","9.706566","sit down","0"
"68864496312488","3","-0.5591046","0.08240485","9.761662","sit down","0"
"68864516230978","3","-0.5734775","0.068032","9.742498","sit down","0"
"68864536157072","3","-0.59743226","0.065636516","9.740103","sit down","0"
"68864556075561","3","-0.6285735","0.07042748","9.835922","sit down","0"
"68864575959363","3","-0.5950368","0.060845554","9.740103","sit down","0"
"68864595877853","3","-0.5734775","0.04886818","9.694589","sit down","0"
"68864615818999","3","-0.5615001","0.065636516","9.792804","sit down","0"
"68864635737488","3","-0.56868654","0.068032","9.771244","sit down","0"
"68864655654728","3","-0.6237825","0.056054622","9.728126","sit down","0"
"68864675572228","3","-0.6094097","0.063241065","9.785617","sit down","0"
"68864695485249","3","-0.58785033","0.041681737","9.723335","sit down","0"
"68864715402749","3","-0.5806639","0.07761392","9.711357","sit down","0"
"68864735343218","3","-0.5591046","0.094382286","9.797595","sit down","0"
"68864755260718","3","-0.59982777","0.063241065","9.74729","sit down","0"
"68864775157593","3","-0.630969","0.0464727","9.687403","sit down","0"
"68864795075093","3","-0.6525283","0.044077218","9.790408","sit down","0"
"68864814983322","3","-0.6046187","0.07761392","9.74729","sit down","0"
"68864834900822","3","-0.56629103","0.044077218","9.740103","sit down","0"
"68864854806395","3","-0.6405509","0.07761392","9.759267","sit down","0"
"68864874723895","3","-0.58785033","0.091986775","9.742498","sit down","0"
"68864894685770","3","-0.5303589","0.027308851","9.737708","sit down","0"
"68864914603270","3","-0.48963574","0.027308851","9.811967","sit down","0"
"68864934484884","3","-0.571082","0.0800094","9.802386","sit down","0"
"68864954402384","3","-0.6405509","0.08719584","9.670634","sit down","0"
"68864974356343","3","-0.6980424","0.060845554","9.742498","sit down","0"
"68864994273843","3","-0.63336444","0.0464727","9.759267","sit down","0"
"68865014194988","3","-0.6094097","0.032099843","9.692194","sit down","0"
"68865034112488","3","-0.59024584","0.07761392","9.711357","sit down","0"
"68865054030197","3","-0.5950368","0.094382286","9.804781","sit down","0"
"68865073947697","3","-0.6237825","0.0800094","9.780826","sit down","0"
"68865093863009","3","-0.58305943","0.068032","9.7089615","sit down","0"
"68865113780509","3","-0.54712725","0.060845554","9.756871","sit down","0"
"68865133707176","3","-0.58785033","0.12073253","9.766453","sit down","0"
"68865153624676","3","-0.5279634","0.16145566","9.701775","sit down","0"
"68865173513426","3","-0.5638956","0.17103758","9.67303","sit down","0"
"68865193430926","3","-0.6165961","0.17103758","9.677821","sit down","0"
"68865213346343","3","-0.49682218","0.17343305","9.711357","sit down","0"
"68865233263843","3","-0.50879955","0.11833705","9.737708","sit down","0"
"68865253188061","3","-0.59743226","0.0800094","9.701775","sit down","0"
"68865273105561","3","-0.6165961","0.11594157","9.615538","sit down","0"
"68865293031603","3","-0.6477373","0.08719584","9.558047","sit down","0"
"68865312949103","3","-0.6621102","-0.022996157","9.687403","sit down","0"
"68865332883426","3","-0.7794886","-0.14037463","9.821548","sit down","0"
"68865352800926","3","-0.9040535","-0.30566266","9.876645","sit down","0"
"68865372699988","3","-0.91124","-0.36794505","9.934136","sit down","0"
"68865392633686","3","-0.84177107","-0.2553576","9.960486","sit down","0"
"68865412551186","3","-0.6908559","-0.19786611","9.977255","sit down","0"
"68865432469520","3","-0.58785033","-0.1739113","10.0060005","sit down","0"
"68865452387020","3","-0.65731925","-0.14995655","9.891018","sit down","0"
"68865472308061","3","-0.72439265","-0.08048767","9.718544","sit down","0"
"68865492225561","3","-0.76751125","0.0033540726","9.586792","sit down","0"
"68865512144155","3","-0.7794886","-0.015809774","9.589188","sit down","0"
"68865532061655","3","-0.68606496","-0.08048767","9.718544","sit down","0"
"68865551981707","3","-0.59982777","-0.070905745","9.764058","sit down","0"
"68865571899207","3","-0.57826847","-0.0301826","9.704171","sit down","0"
"68865591847280","3","-0.63575995","-0.025391668","9.737708","sit down","0"
"68865611764780","3","-0.72439265","-0.015809774","9.807176","sit down","0"
"68865631653218","3","-0.74355644","-0.008623332","9.785617","sit down","0"
"68865651570665","3","-0.6980424","-0.008623332","9.728126","sit down","0"
"68865671489520","3","-0.6692966","-0.018205225","9.704171","sit down","0"
"68865691406968","3","-0.6740876","-0.0301826","9.720939","sit down","0"
"68865711328426","3","-0.6740876","-0.044555485","9.776035","sit down","0"
"68865731245926","3","-0.6621102","-0.051741928","9.785617","sit down","0"
"68865751159520","3","-0.6692966","-0.046950966","9.706566","sit down","0"
"68865771077020","3","-0.6980424","-0.039764553","9.723335","sit down","0"
"68865791006759","3","-0.7196017","-0.05653289","9.797595","sit down","0"
"68865810924259","3","-0.6836695","-0.08288315","9.77364","sit down","0"
"68865830840457","3","-0.67887855","-0.12600175","9.756871","sit down","0"
"68865850757957","3","-0.73157907","-0.13797912","9.7880125","sit down","0"
"68865870680145","3","-0.7507429","-0.099651486","9.7353115","sit down","0"
"68865890597645","3","-0.7579293","-0.05892834","9.701775","sit down","0"
"68865910505718","3","-0.741161","-0.044555485","9.744894","sit down","0"
"68865930423165","3","-0.74595195","-0.06132382","9.740103","sit down","0"
"68865950355718","3","-0.7507429","-0.09006956","9.759267","sit down","0"
"68865970273165","3","-0.74355644","-0.08288315","9.768848","sit down","0"
"68865990190978","3","-0.7124152","-0.08527863","9.764058","sit down","0"
"68866010108478","3","-0.6956469","-0.05892834","9.742498","sit down","0"
"68866030039676","3","-0.7172062","-0.051741928","9.759267","sit down","0"
"68866049957176","3","-0.6980424","-0.06132382","9.785617","sit down","0"
"68866069871863","3","-0.68127406","-0.06611478","9.749685","sit down","0"
"68866089789363","3","-0.68606496","-0.06132382","9.732917","sit down","0"
"68866109713426","3","-0.6740876","-0.03497356","9.732917","sit down","0"
"68866129630926","3","-0.67169213","-0.0038323402","9.730521","sit down","0"
"68866149539936","3","-0.6980424","-0.0301826","9.723335","sit down","0"
"68866169457436","3","-0.6908559","-0.05413738","9.744894","sit down","0"
"68866189389259","3","-0.6980424","-0.070905745","9.718544","sit down","0"
"68866209306759","3","-0.67169213","-0.073301226","9.711357","sit down","0"
"68866229225145","3","-0.6836695","-0.06611478","9.759267","sit down","0"
"68866249142645","3","-0.68846047","-0.051741928","9.77364","sit down","0"
"68866269084103","3","-0.68127406","-0.03497356","9.783222","sit down","0"
"68866289001603","3","-0.7148107","-0.06611478","9.780826","sit down","0"
"68866308890249","3","-0.72439265","-0.06371933","9.77364","sit down","0"
"68866328807749","3","-0.72439265","-0.070905745","9.7353115","sit down","0"
"68866348759363","3","-0.71001977","-0.05653289","9.737708","sit down","0"
"68866368676863","3","-0.7052288","-0.06132382","9.776035","sit down","0"
"68866388596863","3","-0.7124152","-0.073301226","9.783222","sit down","0"
"68866408514311","3","-0.71001977","-0.07569671","9.75208","sit down","0"
"68866428435040","3","-0.7052288","-0.08048767","9.742498","sit down","0"
"68866448353999","3","-0.7076243","-0.08288315","9.740103","sit down","0"
"68866468253270","3","-0.68606496","-0.051741928","9.72573","sit down","0"
"68866488186343","3","-0.6956469","-0.046950966","9.742498","sit down","0"
"68866508113634","3","-0.6956469","-0.051741928","9.737708","sit down","0"
"68866528032540","3","-0.6908559","-0.039764553","9.728126","sit down","0"
"68866547924520","3","-0.69325143","-0.020600706","9.72573","sit down","0"
"68866567843478","3","-0.6980424","-0.046950966","9.732917","sit down","0"
"68866587795874","3","-0.7052288","-0.039764553","9.75208","sit down","0"
"68866607714780","3","-0.6980424","-0.05413738","9.749685","sit down","0"
"68866627617697","3","-0.68606496","-0.06611478","9.72573","sit down","0"
"68866647536603","3","-0.70043784","-0.070905745","9.7880125","sit down","0"
"68866667465665","3","-0.7052288","-0.08288315","9.74729","sit down","0"
"68866687384572","3","-0.7196017","-0.06611478","9.732917","sit down","0"
"68866707298634","3","-0.7172062","-0.049346447","9.766453","sit down","0"
"68866727217540","3","-0.7148107","-0.05653289","9.74729","sit down","0"
"68866747113165","3","-0.71001977","-0.06371933","9.75208","sit down","0"
"68866767032124","3","-0.7076243","-0.06371933","9.768848","sit down","0"
"68866786973895","3","-0.6956469","-0.039764553","9.72573","sit down","0"
"68866806892749","3","-0.68606496","-0.037369043","9.728126","sit down","0"
"68866826793790","3","-0.6980424","-0.042160004","9.75208","sit down","0"
"68866846712749","3","-0.6908559","-0.06611478","9.75208","sit down","0"
"68866866633426","3","-0.7076243","-0.068510264","9.742498","sit down","0"
"68866886552384","3","-0.68846047","-0.05653289","9.737708","sit down","0"
"68866906471186","3","-0.6956469","-0.06371933","9.75208","sit down","0"
"68866926390145","3","-0.71001977","-0.05892834","9.756871","sit down","0"
"68866946285665","3","-0.6980424","-0.05413738","9.764058","sit down","0"
"68866966204572","3","-0.7076243","-0.073301226","9.77364","sit down","0"
"68866986144676","3","-0.6956469","-0.08048767","9.768848","sit down","0"
"68867006063634","3","-0.6980424","-0.05653289","9.740103","sit down","0"
"68867025908738","3","-0.7148107","-0.06611478","9.716147","sit down","0"
"68867045827645","3","-0.7124152","-0.05892834","9.778431","sit down","0"
"68867065822384","3","-0.7076243","-0.05413738","9.802386","sit down","0"
"68867085741290","3","-0.69325143","-0.03257811","9.776035","sit down","0"
"68867105641030","3","-0.6956469","-0.025391668","9.720939","sit down","0"
"68867125559988","3","-0.7052288","-0.03257811","9.749685","sit down","0"
"68867145468061","3","-0.70283335","-0.068510264","9.771244","sit down","0"
"68867165387020","3","-0.6956469","-0.07809219","9.754476","sit down","0"
"68867185309207","3","-0.6956469","-0.07809219","9.75208","sit down","0"
"68867205228165","3","-0.69325143","-0.08767411","9.761662","sit down","0"
"68867225155249","3","-0.7076243","-0.08048767","9.728126","sit down","0"
"68867245074207","3","-0.7172062","-0.05413738","9.730521","sit down","0"
"68867264996759","3","-0.7124152","-0.05653289","9.780826","sit down","0"
"68867284915718","3","-0.7124152","-0.05892834","9.737708","sit down","0"
"68867304813843","3","-0.7267881","-0.049346447","9.711357","sit down","0"
"68867324732749","3","-0.70283335","-0.05413738","9.77364","sit down","0"
"68867344678322","3","-0.6980424","-0.05892834","9.744894","sit down","0"
"68867364597228","3","-0.7124152","-0.044555485","9.744894","sit down","0"
"68867384504468","3","-0.7076243","-0.044555485","9.761662","sit down","0"
"68867404423426","3","-0.70283335","-0.049346447","9.768848","sit down","0"
"68867424352488","3","-0.71001977","-0.05892834","9.74729","sit down","0"
"68867444271395","3","-0.7148107","-0.051741928","9.759267","sit down","0"
"68867464184884","3","-0.70043784","-0.046950966","9.740103","sit down","0"
"68867484103843","3","-0.68846047","-0.039764553","9.740103","sit down","0"
"68867504011707","3","-0.6908559","-0.049346447","9.754476","sit down","0"
"68867523930561","3","-0.69325143","-0.05653289","9.749685","lay down","0"
"68867543854468","3","-0.7172062","-0.05653289","9.754476","lay down","0"
"68867563772697","3","-0.72439265","-0.06371933","9.744894","lay down","0"
"68867583704780","3","-0.70043784","-0.051741928","9.742498","lay down","0"
"68867603623009","3","-0.70283335","-0.06132382","9.732917","lay down","0"
"68867623564259","3","-0.7172062","-0.05413738","9.764058","lay down","0"
"68867643482488","3","-0.70283335","-0.06611478","9.75208","lay down","0"
"68867663403374","3","-0.71001977","-0.06611478","9.75208","lay down","0"
"68867683321603","3","-0.6956469","-0.06611478","9.7353115","lay down","0"
"68867703243478","3","-0.70043784","-0.07809219","9.744894","lay down","0"
"68867723161707","3","-0.7076243","-0.068510264","9.732917","lay down","0"
"68867743056707","3","-0.71001977","-0.06611478","9.766453","lay down","0"
"68867762974936","3","-0.71001977","-0.049346447","9.749685","lay down","0"
"68867782892280","3","-0.6908559","-0.05653289","9.7089615","lay down","0"
"68867802810561","3","-0.6956469","-0.06132382","9.716147","lay down","0"
"68867822759415","3","-0.71001977","-0.070905745","9.797595","lay down","0"
"68867842677645","3","-0.7076243","-0.06371933","9.797595","lay down","0"
"68867862557488","3","-0.7124152","-0.044555485","9.670634","lay down","0"
"68867882475718","3","-0.7076243","-0.037369043","9.713753","lay down","0"
"68867902442905","3","-0.7052288","-0.073301226","9.804781","lay down","0"
"68867922361134","3","-0.68127406","-0.07569671","9.780826","lay down","0"
"68867942258478","3","-0.7148107","-0.06371933","9.668239","lay down","0"
"68867962176707","3","-0.7291836","-0.07809219","9.732917","lay down","0"
"68867982089780","3","-0.7267881","-0.099651486","9.754476","lay down","0"
"68868002008009","3","-0.73157907","-0.15474752","9.838318","lay down","0"
"68868021933270","3","-0.6908559","-0.14756107","9.9005995","lay down","0"
"68868041851499","3","-0.64294636","-0.07569671","9.730521","lay down","0"
"68868061771238","3","-0.6501328","-0.042160004","9.663447","lay down","0"
"68868081689520","3","-0.70043784","-0.042160004","9.783222","lay down","0"
"68868101643426","3","-0.7627203","-0.068510264","9.797595","lay down","0"
"68868121561655","3","-0.7794886","-0.046950966","9.749685","lay down","0"
"68868141448843","3","-0.76751125","-0.013414264","9.756871","lay down","0"
"68868161367072","3","-0.76032484","0.0033540726","9.65147","lay down","0"
"68868181320093","3","-0.73157907","0.056054622","9.615538","lay down","0"
"68868201238322","3","-0.76751125","0.11833705","9.7353115","lay down","0"
"68868221159988","3","-0.7507429","0.09917322","9.665843","lay down","0"
"68868241078218","3","-0.7291836","-0.022996157","9.754476","lay down","0"
"68868260989468","3","-0.6597147","-0.073301226","9.833527","lay down","0"
"68868280907697","3","-0.6501328","-0.07569671","9.69938","lay down","0"
"68868300825093","3","-0.630969","-0.11162889","9.704171","lay down","0"
"68868320743322","3","-0.65492374","-0.099651486","9.876645","lay down","0"
"68868340643895","3","-0.65492374","-0.049346447","9.828736","lay down","0"
"68868360562124","3","-0.7196017","0.02251792","9.6562605","lay down","0"
"68868380503843","3","-0.6980424","0.008145064","9.685007","lay down","0"
"68868400422072","3","-0.67648304","-0.051741928","9.828736","lay down","0"
"68868420330718","3","-0.7627203","-0.073301226","9.835922","lay down","0"
"68868440248947","3","-0.61180514","-0.006227821","9.737708","lay down","0"
"68868460157749","3","-0.4728674","-0.1906797","9.579606","lay down","0"
"68868480075978","3","-0.6165961","-0.33440837","9.792804","lay down","0"
"68868499996134","3","-0.82021177","-0.22661188","10.008397","lay down","0"
"68868519914363","3","-0.7723022","-0.17630681","9.713753","lay down","0"
"68868539842593","3","-0.74355644","-0.10444245","9.665843","lay down","0"
"68868559760874","3","-0.70043784","-0.10204697","9.742498","lay down","0"
"68868579713582","3","-0.68127406","-0.1906797","9.742498","lay down","0"
"68868599631759","3","-0.80344343","-0.17870227","9.764058","lay down","0"
"68868619520561","3","-0.77469766","-0.20265707","9.807176","lay down","0"
"68868639438790","3","-0.72439265","0.027308851","9.744894","lay down","0"
"68868659360509","3","-0.57587296","0.15426922","9.62991","lay down","0"
"68868679278738","3","-0.56629103","0.12312801","9.742498","lay down","0"
"68868699193113","3","-0.7651158","-0.06611478","9.670634","lay down","0"
"68868719111395","3","-0.95914954","-0.14277011","9.65147","lay down","0"
"68868739055040","3","-0.9327993","-0.06132382","9.6562605","lay down","0"
"68868758973270","3","-0.7723022","0.07761392","9.615538","lay down","0"
"68868778876551","3","-0.59024584","0.11115062","9.641888","lay down","0"
"68868798794780","3","-0.515986","0.029704332","9.845504","lay down","0"
"68868818711655","3","-0.5854549","-0.015809774","9.852691","lay down","0"
"68868838629936","3","-0.70043784","-0.08048767","9.62991","lay down","0"
"68868858537228","3","-0.74595195","-0.013414264","9.646679","lay down","0"
"68868878455457","3","-0.76751125","-0.011018783","9.601165","lay down","0"
"68868898418582","3","-0.7723022","-0.18349329","9.639493","lay down","0"
"68868918336811","3","-0.81302536","-0.4110637","9.75208","lay down","0"
"68868938249259","3","-0.92321736","-0.39908633","9.823945","lay down","0"
"68868958167488","3","-0.81302536","-0.1739113","9.835922","lay down","0"
"68868978075561","3","-0.5854549","-0.25056663","9.991628","lay down","0"
"68868997993790","3","-0.59982777","-0.31284907","10.008397","lay down","0"
"68869017931343","3","-0.6836695","-0.36075863","9.792804","lay down","0"
"68869037849572","3","-0.67169213","-0.33201286","9.740103","lay down","0"
"68869057745040","3","-0.4728674","-0.25775304","9.809572","lay down","0"
"68869077663270","3","-0.50161314","-0.05413738","9.850295","lay down","0"
"68869097579988","3","-0.64294636","-0.0014368892","9.989233","lay down","0"
"68869117498218","3","-0.8226073","-0.022996157","9.917368","lay down","0"
"68869137431186","3","-0.92321736","-0.05653289","9.558047","lay down","0"
"68869157349415","3","-0.9184264","-0.22421637","9.570024","lay down","0"
"68869177263165","3","-0.79865247","-0.2769169","9.814363","lay down","0"
"68869197181395","3","-0.73637","-0.06371933","9.857482","lay down","0"
"68869217103218","3","-0.8010479","0.04886818","9.74729","lay down","0"
"68869237021447","3","-0.81062984","0.02251792","9.689797","lay down","0"
"68869256951186","3","-0.6836695","-0.13558367","9.687403","lay down","0"
"68869276869415","3","-0.66450566","-0.18588868","9.720939","lay down","0"
"68869296783009","3","-0.7627203","-0.05413738","9.627516","lay down","0"
"68869316701238","3","-0.74595195","0.015331477","9.5436735","lay down","0"
"68869336621030","3","-0.68606496","-0.006227821","9.737708","lay down","0"
"68869356539259","3","-0.8537485","-0.05892834","9.816758","lay down","0"
"68869376463218","3","-0.9184264","-0.03497356","9.584397","lay down","0"
"68869396381447","3","-0.72199714","-0.06611478","9.613143","lay down","0"
"68869416318790","3","-0.6477373","-0.013414264","9.891018","lay down","0"
"68869436237020","3","-0.6405509","9.586215E-4","9.711357","lay down","0"
"68869456164832","3","-0.70043784","-0.14756107","9.550859","lay down","0"
"68869476083113","3","-0.6908559","-0.25296214","9.859877","lay down","0"
"68869495973738","3","-0.7507429","-0.32722196","9.972464","lay down","0"
"68869515891968","3","-0.87051684","-0.3152446","9.627516","lay down","0"
"68869535804988","3","-0.796257","-0.1691204","9.459832","lay down","0"
"68869555723218","3","-0.63336444","-0.08527863","9.768848","lay down","0"
"68869575665197","3","-0.65731925","-0.20026156","10.020374","lay down","0"
"68869595583426","3","-0.9088445","-0.19547066","9.879041","lay down","0"
"68869615509884","3","-0.94717216","-0.10204697","9.783222","lay down","0"
"68869635428895","3","-0.73876554","-0.18109778","10.02277","lay down","0"
"68869655310665","3","-0.57826847","-0.24098471","9.692194","lay down","0"
"68869675229676","3","-0.5734775","-0.19786611","9.263403","lay down","0"
"68869695159728","3","-0.5591046","-0.10683793","9.536487","lay down","0"
"68869715078738","3","-0.6477373","-0.14516556","9.785617","lay down","0"
"68869735002384","3","-0.846562","-0.14037463","9.802386","lay down","0"
"68869754921395","3","-0.94717216","-0.049346447","9.680216","lay down","0"
"68869774838790","3","-0.9040535","-0.013414264","9.67303","lay down","0"
"68869794757801","3","-0.796257","-0.020600706","9.862272","lay down","0"
"68869814684468","3","-0.7507429","-0.039764553","9.881435","lay down","0"
"68869834603426","3","-0.7483474","-0.11162889","9.74729","lay down","0"
"68869854540457","3","-0.83458465","-0.14516556","9.811967","lay down","0"
"68869874459468","3","-0.9040535","-0.049346447","9.879041","lay down","0"
"68869894342957","3","-0.7842796","0.05365914","9.713753","lay down","0"
"68869914261968","3","-0.73157907","-0.070905745","9.548465","lay down","0"
"68869934187593","3","-0.7267881","-0.37992254","9.749685","lay down","0"
"68869954106603","3","-0.75313836","-0.23858926","10.017979","lay down","0"
"68869974041915","3","-0.79146606","-0.006227821","9.850295","lay down","0"
"68869993960926","3","-0.7267881","0.091986775","9.632307","lay down","0"
"68870013881395","3","-0.7651158","-0.097256005","9.732917","lay down","0"
"68870033800405","3","-0.9327993","-0.12121078","9.833527","lay down","0"
"68870053689520","3","-1.0070591","-0.05413738","9.816758","lay down","0"
"68870073608530","3","-0.73876554","-0.11641985","9.6562605","lay down","0"
"68870093513009","3","-0.58305943","-0.27452144","9.4646225","lay down","0"
"68870113432020","3","-0.48484477","-0.29608074","9.658657","lay down","0"
"68870133356082","3","-0.9256128","-0.2984762","9.79999","lay down","0"
"68870153275093","3","-1.5460417","0.14229183","10.053911","lay down","0"
"68870173195353","3","-1.5604146","0.11115062","10.456351","lay down","0"
"68870193114363","3","-1.126833","-0.14756107","9.608352","lay down","0"
"68870213030197","3","-0.57826847","-0.15714297","8.781912","lay down","0"
"68870232949207","3","-0.19259644","-0.152352","9.670634","lay down","0"
"68870252897905","3","-0.36507085","-0.15714297","10.116193","lay down","0"
"68870272816915","3","-0.69325143","-0.152352","9.783222","lay down","0"
"68870292704051","3","-0.80344343","-0.212239","9.632307","lay down","0"
"68870312623061","3","-0.79146606","-0.14516556","9.498159","lay down","0"
"68870332565145","3","-0.7579293","-0.09246507","9.65147","lay down","0"
"68870352484155","3","-0.7866751","-0.068510264","9.835922","lay down","0"
"68870372365718","3","-0.7842796","-0.06371933","9.7880125","lay down","0"
"68870392284728","3","-0.7196017","-0.06371933","9.783222","lay down","0"
"68870412219884","3","-0.79146606","-0.068510264","9.737708","lay down","0"
"68870432138895","3","-0.89207613","-0.094860554","9.75208","lay down","0"
"68870452049624","3","-0.8297937","-0.123606294","9.761662","lay down","0"
"68870471968634","3","-0.8369801","-0.12839723","9.845504","lay down","0"
"68870491882749","3","-0.80344343","-0.16672489","9.859877","lay down","0"
"68870511801759","3","-0.78188413","-0.1906797","9.711357","lay down","0"
"68870531728113","3","-0.7866751","-0.18588868","9.75208","lay down","0"
"68870551647124","3","-0.7842796","-0.14277011","9.766453","lay down","0"
"68870571550822","3","-0.7938615","-0.09006956","9.742498","lay down","0"
"68870591469832","3","-0.7723022","-0.08288315","9.749685","lay down","0"
"68870611385301","3","-0.7651158","-0.08288315","9.713753","lay down","0"
"68870631304311","3","-0.7842796","-0.08767411","9.685007","lay down","0"
"68870651217280","3","-0.7770932","-0.08048767","9.687403","lay down","0"
"68870671135093","3","-0.78188413","-0.08527863","9.75208","lay down","0"
"68870691079051","3","-0.82500273","-0.09006956","9.792804","lay down","0"
"68870710996811","3","-0.8082344","-0.099651486","9.7353115","lay down","0"
"68870730886238","3","-0.80344343","-0.123606294","9.730521","lay down","0"
"68870750803999","3","-0.78907055","-0.12600175","9.742498","lay down","0"
"68870770722332","3","-0.78188413","-0.13318819","9.74729","lay down","0"
"68870790640093","3","-0.76990676","-0.14756107","9.75208","lay down","0"
"68870810557124","3","-0.80583894","-0.1307927","9.756871","lay down","0"
"68870830474884","3","-0.78907055","-0.123606294","9.780826","lay down","0"
"68870850393165","3","-0.80583894","-0.123606294","9.768848","lay down","0"
"68870870310926","3","-0.78907055","-0.12121078","9.749685","lay down","0"
"68870890254676","3","-0.80344343","-0.11162889","9.759267","lay down","0"
"68870910172436","3","-0.80344343","-0.09246507","9.776035","lay down","0"
"68870930057645","3","-0.78907055","-0.08288315","9.749685","lay down","0"
"68870949975405","3","-0.79146606","-0.10204697","9.718544","lay down","0"
"68870969931186","3","-0.7794886","-0.11162889","9.7353115","lay down","0"
"68870989848947","3","-0.76751125","-0.123606294","9.742498","lay down","0"
"68871009766290","3","-0.77469766","-0.12600175","9.740103","lay down","0"
"68871029684051","3","-0.7794886","-0.11402434","9.730521","lay down","0"
"68871049591811","3","-0.7770932","-0.11881533","9.74729","lay down","0"
"68871069501759","3","-0.796257","-0.13318819","9.768848","lay down","0"
"68871089412176","3","-0.7938615","-0.12121078","9.780826","lay down","0"
"68871109329884","3","-0.8010479","-0.123606294","9.771244","lay down","0"
"68871129234728","3","-0.81062984","-0.12600175","9.75208","lay down","0"
"68871149152540","3","-0.8010479","-0.11881533","9.759267","lay down","0"
"68871169092697","3","-0.7866751","-0.123606294","9.771244","lay down","0"
"68871189010457","3","-0.76032484","-0.13797912","9.737708","lay down","0"
"68871208938009","3","-0.76990676","-0.12600175","9.740103","lay down","0"
"68871228855770","3","-0.7770932","-0.097256005","9.730521","lay down","0"
"68871248771082","3","-0.79146606","-0.09246507","9.7353115","lay down","0"
"68871268688843","3","-0.7794886","-0.099651486","9.72573","lay down","0"
"68871288606343","3","-0.7842796","-0.11402434","9.7353115","lay down","0"
"68871308524103","3","-0.77469766","-0.12839723","9.75208","lay down","0"
"68871328443009","3","-0.78907055","-0.10923341","9.718544","lay down","0"
"68871348360770","3","-0.7938615","-0.12600175","9.744894","lay down","0"
"68871368275093","3","-0.796257","-0.12839723","9.768848","lay down","0"
"68871388192853","3","-0.7794886","-0.12121078","9.744894","lay down","0"
"68871408078061","3","-0.79146606","-0.1307927","9.744894","lay down","0"
"68871427995874","3","-0.79865247","-0.11881533","9.754476","lay down","0"
"68871447944520","3","-0.79865247","-0.11881533","9.74729","lay down","0"
"68871467862280","3","-0.77469766","-0.11881533","9.730521","lay down","0"
"68871487790301","3","-0.7794886","-0.12121078","9.740103","lay down","0"
"68871507708061","3","-0.7842796","-0.123606294","9.740103","lay down","0"
"68871527627697","3","-0.78907055","-0.12121078","9.744894","sit up","0"
"68871547545457","3","-0.79146606","-0.10683793","9.742498","sit up","0"
"68871567459780","3","-0.78907055","-0.10923341","9.7089615","sit up","0"
"68871587377540","3","-0.78907055","-0.11641985","9.730521","sit up","0"
"68871607293686","3","-0.7794886","-0.11881533","9.737708","sit up","0"
"68871627211447","3","-0.7842796","-0.11162889","9.754476","sit up","0"
"68871647111759","3","-0.8010479","-0.12600175","9.768848","sit up","0"
"68871667029520","3","-0.79865247","-0.12839723","9.761662","sit up","0"
"68871686929988","3","-0.7794886","-0.11641985","9.720939","sit up","0"
"68871706847749","3","-0.7770932","-0.099651486","9.732917","sit up","0"
"68871726799728","3","-0.7723022","-0.10683793","9.749685","sit up","0"
"68871746717488","3","-0.7866751","-0.11641985","9.72573","sit up","0"
"68871766632176","3","-0.78188413","-0.12839723","9.728126","sit up","0"
"68871786549936","3","-0.79146606","-0.13318819","9.737708","sit up","0"
"68871806467853","3","-0.79865247","-0.12600175","9.723335","sit up","0"
"68871826385613","3","-0.7770932","-0.11402434","9.75208","sit up","0"
"68871846273061","3","-0.77469766","-0.11641985","9.74729","sit up","0"
"68871866190822","3","-0.7842796","-0.123606294","9.74729","sit up","0"
"68871886126655","3","-0.7866751","-0.12600175","9.744894","sit up","0"
"68871906044415","3","-0.78907055","-0.11162889","9.759267","sit up","0"
"68871925953582","3","-0.78907055","-0.123606294","9.744894","sit up","0"
"68871945871343","3","-0.78907055","-0.10923341","9.737708","sit up","0"
"68871965765770","3","-0.79865247","-0.10683793","9.749685","sit up","0"
"68871985683582","3","-0.78188413","-0.08288315","9.754476","sit up","0"
"68872005634832","3","-0.78188413","-0.094860554","9.764058","sit up","0"
"68872025552593","3","-0.78188413","-0.11162889","9.704171","sit up","0"
"68872045431082","3","-0.796257","-0.08288315","9.685007","sit up","0"
"68872065348843","3","-0.796257","-0.06371933","9.756871","sit up","0"
"68872085272801","3","-0.79146606","-0.10204697","9.823945","sit up","0"
"68872105190561","3","-0.7627203","-0.15474752","9.704171","sit up","0"
"68872125102228","3","-0.74355644","-0.14995655","9.644284","sit up","0"
"68872145019468","3","-0.81302536","-0.08288315","9.687403","sit up","0"
"68872164937905","3","-0.8753078","-0.068510264","9.742498","sit up","0"
"68872184855197","3","-0.8297937","-0.1307927","9.7880125","sit up","0"
"68872204773218","3","-0.7555339","-0.15953842","9.764058","sit up","0"
"68872224690457","3","-0.71001977","-0.11881533","9.749685","sit up","0"
"68872244593218","3","-0.78907055","-0.09006956","9.802386","sit up","0"
"68872264510457","3","-0.846562","-0.11402434","9.761662","sit up","0"
"68872284466343","3","-0.82021177","-0.12121078","9.742498","sit up","0"
"68872304383530","3","-0.8010479","-0.06132382","9.7880125","sit up","0"
"68872324298582","3","-0.7938615","-0.070905745","9.764058","sit up","0"
"68872344215822","3","-0.8297937","-0.08527863","9.744894","sit up","0"
"68872364128322","3","-0.82500273","-0.06611478","9.692194","sit up","0"
"68872384045561","3","-0.7483474","-0.09246507","9.67303","sit up","0"
"68872403957749","3","-0.67169213","-0.11641985","9.737708","sit up","0"
"68872423874988","3","-0.6956469","-0.18109778","9.706566","sit up","0"
"68872443764572","3","-0.7866751","-0.17870227","9.627516","sit up","0"
"68872463681811","3","-0.80344343","-0.097256005","9.620329","sit up","0"
"68872483606915","3","-0.7507429","-0.18349329","9.778431","sit up","0"
"68872503524155","3","-0.74595195","-0.17630681","9.780826","sit up","0"
"68872523450718","3","-0.8178163","-0.20984349","9.605956","sit up","0"
"68872543367957","3","-0.8848897","-0.20984349","9.670634","sit up","0"
"68872563293426","3","-0.846562","-0.262544","9.809572","sit up","0"
"68872583210665","3","-0.796257","-0.39908633","9.912578","sit up","0"
"68872603108947","3","-0.74355644","-0.2841033","9.843109","sit up","0"
"68872623026186","3","-0.7794886","-0.17870227","9.704171","sit up","0"
"68872642940197","3","-0.8369801","-0.33201286","9.670634","sit up","0"
"68872662887749","3","-0.846562","-0.36554965","9.907787","sit up","0"
"68872682804936","3","-0.86333036","-0.26733503","9.986836","sit up","0"
"68872702700509","3","-0.8753078","-0.23619375","9.69938","sit up","0"
"68872722617749","3","-0.86333036","-0.2553576","9.615538","sit up","0"
"68872742530301","3","-0.85853946","-0.18828419","9.74729","sit up","0"
"68872762447540","3","-0.81302536","-0.14277011","9.792804","sit up","0"
"68872782343218","3","-0.80583894","-0.212239","9.658657","sit up","0"
"68872802260457","3","-0.85853946","-0.24817112","9.675425","sit up","0"
"68872822180145","3","-0.82021177","-0.25775304","9.922159","sit up","0"
"68872842097384","3","-0.9399857","-0.0301826","9.778431","sit up","0"
"68872862005353","3","-0.7723022","0.032099843","9.57242","sit up","0"
"68872881922540","3","-0.52317244","-0.18828419","9.67303","sit up","0"
"68872901863738","3","-0.68127406","-0.3200355","9.7880125","sit up","0"
"68872921780978","3","-0.8178163","-0.18349329","9.737708","sit up","0"
"68872941672957","3","-0.98310435","-0.08048767","9.658657","sit up","0"
"68872961590197","3","-0.9759179","-0.06611478","9.665843","sit up","0"
"68872981539780","3","-0.8226073","-0.094860554","9.845504","sit up","0"
"68873001457020","3","-0.741161","-0.23379824","9.838318","sit up","0"
"68873021344363","3","-0.77469766","-0.26493952","9.72573","sit up","0"
"68873041261603","3","-0.82021177","-0.20505258","9.641888","sit up","0"
"68873061176082","3","-0.8369801","-0.22900733","9.718544","sit up","0"
"68873081093322","3","-0.85614395","-0.24817112","9.867063","sit up","0"
"68873101008113","3","-0.8154208","-0.15953842","9.912578","sit up","0"
"68873120925353","3","-0.79146606","-0.05653289","9.871854","sit up","0"
"68873140791082","3","-0.72199714","-0.051741928","9.730521","sit up","0"
"68873160708322","3","-0.75313836","-0.19786611","9.7089615","sit up","0"
"68873180669624","3","-0.8154208","-0.34878126","9.744894","sit up","0"
"68873200586863","3","-0.8393756","-0.36315414","9.62512","sit up","0"
"68873220499832","3","-0.8393756","-0.35357222","9.452646","sit up","0"
"68873240417072","3","-0.82500273","-0.3439903","9.75208","sit up","0"
"68873260333738","3","-0.7866751","-0.26014856","10.010792","sit up","0"
"68873280250978","3","-0.81062984","-0.15953842","9.843109","sit up","0"
"68873300193790","3","-0.8321892","-0.13318819","9.694589","sit up","0"
"68873320111030","3","-0.851353","-0.1307927","9.785617","sit up","0"
"68873340007749","3","-0.90165806","-0.1307927","9.754476","sit up","0"
"68873359925040","3","-0.8872852","-0.11162889","9.730521","sit up","0"
"68873379826863","3","-0.8321892","-0.17151585","9.790408","sit up","0"
"68873399744103","3","-0.82500273","-0.20026156","9.771244","sit up","0"
"68873419650093","3","-0.82739824","-0.17151585","9.754476","sit up","0"
"68873439567332","3","-0.79146606","-0.12600175","9.759267","sit up","0"
"68873459481759","3","-0.7627203","-0.10444245","9.713753","sit up","0"
"68873479398999","3","-0.6956469","-0.14277011","9.610746","sit up","0"
"68873499326447","3","-0.6501328","-0.19547066","9.7089615","sit up","0"
"68873519243634","3","-0.67648304","-0.20744804","9.82634","sit up","0"
"68873539155718","3","-0.7842796","-0.11881533","9.706566","sit up","0"
"68873559072905","3","-0.8154208","-0.05892834","9.634702","sit up","0"
"68873579001290","3","-0.8178163","-0.046950966","9.677821","sit up","0"
"68873598918530","3","-0.79865247","-0.073301226","9.718544","sit up","0"
"68873618841499","3","-0.71001977","-0.051741928","9.740103","sit up","0"
"68873638758790","3","-0.6621102","-0.03497356","9.75208","sit up","0"
"68873658674572","3","-0.6477373","-0.018205225","9.737708","sit up","0"
"68873678591811","3","-0.73876554","-0.10204697","9.759267","sit up","0"
"68873698453009","3","-0.8393756","-0.29608074","9.718544","sit up","0"
"68873718368270","3","-0.796257","-0.4493914","9.744894","sit up","0"
"68873738307280","3","-0.75313836","-0.34638575","9.795198","sit up","0"
"68873758222540","3","-0.8441666","-0.20744804","9.718544","sit up","0"
"68873778147176","3","-0.9543586","-0.18349329","9.6562605","sit up","0"
"68873798062436","3","-1.0573641","-0.1906797","9.582001","sit up","0"
"68873817996499","3","-0.89926255","-0.13318819","9.634702","sit up","0"
"68873837911707","3","-0.78188413","-0.05653289","9.857482","sit up","0"
"68873857796759","3","-0.76990676","-0.044555485","9.938928","sit up","0"
"68873877712020","3","-0.8441666","-0.037369043","9.778431","sit up","0"
"68873897649624","3","-0.961545","-0.11402434","9.632307","sit up","0"
"68873917564884","3","-0.9256128","-0.10683793","9.795198","sit up","0"
"68873937481186","3","-0.78907055","-0.0014368892","9.754476","sit up","0"
"68873957396395","3","-0.64294636","0.065636516","9.584397","sit up","0"
"68873977300145","3","-0.6669012","0.0033540726","9.608352","sit up","0"
"68873997215353","3","-0.89447165","-0.18828419","9.67303","sit up","0"
"68874017106395","3","-1.0046636","-0.31764004","9.924555","sit up","0"
"68874037021603","3","-0.9184264","-0.30566266","9.9796505","sit up","0"
"68874056938530","3","-0.741161","-0.25056663","9.716147","sit up","0"
"68874076853738","3","-0.7196017","-0.042160004","9.582001","sit up","0"
"68874096769832","3","-0.8082344","0.065636516","9.65147","sit up","0"
"68874116685040","3","-0.95914954","0.008145064","9.814363","sit up","0"
"68874136600301","3","-1.0549687","-0.10683793","9.855085","sit up","0"
"68874156515561","3","-0.9567541","-0.11641985","9.768848","sit up","0"
"68874176420665","3","-0.846562","-0.14277011","9.632307","sit up","0"
"68874196335874","3","-0.8896806","-0.11881533","9.740103","sit up","0"
"68874216246811","3","-0.87770325","-0.051741928","9.82634","sit up","0"
"68874236162072","3","-0.9399857","-0.020600706","9.682611","sit up","0"
"68874256056863","3","-0.94238114","-0.06611478","9.692194","sit up","0"
"68874275972072","3","-0.87770325","-0.10444245","9.835922","sit up","0"
"68874295925978","3","-0.8321892","-0.070905745","9.72573","sit up","0"
"68874315841238","3","-0.8681213","-0.042160004","9.670634","sit up","0"
"68874335743947","3","-0.90165806","-0.046950966","9.742498","sit up","0"
"68874355659155","3","-0.9184264","-0.09006956","9.744894","sit up","0"
"68874375571082","3","-0.89926255","-0.14995655","9.776035","sit up","0"
"68874395486290","3","-0.8657259","-0.18349329","9.677821","sit up","0"
"68874415400353","3","-0.83458465","-0.212239","9.601165","sit up","0"
"68874435315561","3","-0.84177107","-0.24577567","9.744894","sit up","0"
"68874455234207","3","-0.8609349","-0.23619375","9.9269495","sit up","0"
"68874475149415","3","-0.89926255","-0.20984349","9.845504","sit up","0"
"68874495073374","3","-0.89207613","-0.12839723","9.742498","sit up","0"
"68874514988582","3","-0.8872852","-0.044555485","9.692194","sit up","0"
"68874534908478","3","-0.89207613","-0.073301226","9.634702","sit up","0"
"68874554823686","3","-0.87770325","-0.16193393","9.814363","sit up","0"
"68874574716343","3","-0.90165806","-0.25056663","9.819154","sit up","0"
"68874594631603","3","-0.846562","-0.28889433","9.723335","sit up","0"
"68874614562332","3","-0.8178163","-0.25775304","9.740103","sit up","0"
"68874634477593","3","-0.846562","-0.20744804","9.7089615","sit up","0"
"68874654384311","3","-0.86333036","-0.10444245","9.77364","sit up","0"
"68874674299520","3","-0.8968671","-0.08048767","9.723335","sit up","0"
"68874694215822","3","-0.89926255","-0.14037463","9.665843","sit up","0"
"68874714131030","3","-0.83458465","-0.21463445","9.833527","sit up","0"
"68874734034103","3","-0.80583894","-0.17630681","9.821548","sit up","0"
"68874753976499","3","-0.8226073","-0.1307927","9.653866","sit up","0"
"68874773872176","3","-0.82021177","-0.12121078","9.687403","sit up","0"
"68874793787384","3","-0.78907055","-0.10444245","9.792804","sit up","0"
"68874813692801","3","-0.7842796","-0.16193393","9.706566","sit up","0"
"68874833608009","3","-0.8369801","-0.21702996","9.74729","sit up","0"
"68874853539988","3","-0.8441666","-0.19307515","9.785617","sit up","0"
"68874873455197","3","-0.82021177","-0.1739113","9.675425","sit up","0"
"68874893363895","3","-0.82500273","-0.14516556","9.694589","sit up","0"
"68874913279051","3","-0.82021177","-0.14995655","9.776035","sit up","0"
"68874933215561","3","-0.8154208","-0.152352","9.756871","sit up","0"
"68874953130718","3","-0.79146606","-0.14037463","9.7353115","sit up","0"
"68874973032020","3","-0.79865247","-0.14756107","9.704171","sit up","0"
"68874992947176","3","-0.8369801","-0.14037463","9.742498","sit up","0"
"68875012834415","3","-0.8154208","-0.123606294","9.711357","sit up","0"
"68875032749624","3","-0.81302536","-0.10444245","9.696984","sit up","0"
"68875052694363","3","-0.7938615","-0.11641985","9.790408","sit up","0"
"68875072609572","3","-0.8226073","-0.14995655","9.795198","sit up","0"
"68875092499624","3","-0.84895754","-0.16672489","9.754476","sit up","0"
"68875112414780","3","-0.84895754","-0.18109778","9.661052","sit up","0"
"68875132351551","3","-0.846562","-0.18109778","9.742498","sit up","0"
"68875152266707","3","-0.8369801","-0.18828419","9.776035","sit up","0"
"68875172183478","3","-0.82500273","-0.17870227","9.720939","sit up","0"
"68875192098686","3","-0.8010479","-0.19307515","9.771244","sit up","0"
"68875212005770","3","-0.80344343","-0.17870227","9.776035","sit up","0"
"68875231920926","3","-0.8010479","-0.1739113","9.7353115","sit up","0"
"68875251856030","3","-0.7938615","-0.18349329","9.754476","sit up","0"
"68875271771238","3","-0.8226073","-0.1739113","9.7353115","sit up","0"
"68875291664936","3","-0.8369801","-0.16193393","9.742498","sit up","0"
"68875311580145","3","-0.82500273","-0.14995655","9.776035","sit up","0"
"68875331527749","3","-0.84177107","-0.152352","9.740103","sit up","0"
"68875351442905","3","-0.846562","-0.152352","9.723335","sit up","0"
"68875371319311","3","-0.80583894","-0.16432944","9.728126","sit up","0"
"68875391234520","3","-0.80583894","-0.16672489","9.74729","sit up","0"
"68875411168686","3","-0.78907055","-0.152352","9.732917","sit up","0"
"68875431083843","3","-0.81302536","-0.17151585","9.694589","sit up","0"
"68875451007488","3","-0.8082344","-0.15714297","9.723335","sit up","0"
"68875470922645","3","-0.8082344","-0.13558367","9.75208","sit up","0"
"68875490838738","3","-0.81302536","-0.1307927","9.749685","sit up","0"
"68875510753895","3","-0.82021177","-0.152352","9.728126","sit up","0"
"68875530657176","3","-0.8441666","-0.16432944","9.754476","stand up","0"
"68875550572384","3","-0.81062984","-0.14995655","9.737708","stand up","0"
"68875570512384","3","-0.81062984","-0.15474752","9.711357","stand up","0"
"68875590427540","3","-0.82021177","-0.16672489","9.728126","stand up","0"
"68875610344311","3","-0.8321892","-0.16193393","9.74729","stand up","0"
"68875630259520","3","-0.82021177","-0.16432944","9.74729","stand up","0"
"68875650165197","3","-0.8178163","-0.16193393","9.766453","stand up","0"
"68875670080353","3","-0.8226073","-0.15953842","9.711357","stand up","0"
"68875690009207","3","-0.81302536","-0.17151585","9.7089615","stand up","0"
"68875709924363","3","-0.82021177","-0.1739113","9.77364","stand up","0"
"68875729840613","3","-0.82021177","-0.15474752","9.771244","stand up","0"
"68875749755874","3","-0.81302536","-0.16432944","9.694589","stand up","0"
"68875769641968","3","-0.8226073","-0.17870227","9.728126","stand up","0"
"68875789557124","3","-0.83458465","-0.15474752","9.778431","stand up","0"
"68875809472957","3","-0.8369801","-0.14037463","9.720939","stand up","0"
"68875829388165","3","-0.82021177","-0.13318819","9.732917","stand up","0"
"68875849301395","3","-0.82500273","-0.13558367","9.718544","stand up","0"
"68875869216655","3","-0.8369801","-0.12121078","9.696984","stand up","0"
"68875889128582","3","-0.85853946","-0.1307927","9.6562605","stand up","0"
"68875909043843","3","-0.90165806","-0.14037463","9.649075","stand up","0"
"68875928961603","3","-0.87770325","-0.20026156","9.792804","stand up","0"
"68875948876811","3","-0.87051684","-0.20984349","9.795198","stand up","0"
"68875968803686","3","-0.851353","-0.17151585","9.689797","stand up","0"
"68875988718947","3","-0.81302536","-0.1739113","9.7089615","stand up","0"
"68876008618686","3","-0.82500273","-0.18109778","9.814363","stand up","0"
"68876028533843","3","-0.8154208","-0.20026156","9.79999","stand up","0"
"68876048450613","3","-0.81062984","-0.22182086","9.776035","stand up","0"
"68876068365874","3","-0.81302536","-0.19307515","9.749685","stand up","0"
"68876088288009","3","-0.851353","-0.1691204","9.711357","stand up","0"
"68876108203270","3","-0.84895754","-0.1739113","9.756871","stand up","0"
"68876128111343","3","-0.84895754","-0.21702996","9.771244","stand up","0"
"68876148026603","3","-0.81302536","-0.23140284","9.795198","stand up","0"
"68876167942436","3","-0.7794886","-0.21463445","9.771244","stand up","0"
"68876187857697","3","-0.77469766","-0.20984349","9.718544","stand up","0"
"68876207788113","3","-0.76032484","-0.15474752","9.79999","stand up","0"
"68876227703322","3","-0.7124152","-0.099651486","9.766453","stand up","0"
"68876247617593","3","-0.75313836","-0.12839723","9.687403","stand up","0"
"68876267532801","3","-0.82739824","-0.16672489","9.742498","stand up","0"
"68876287462853","3","-0.8537485","-0.1691204","9.802386","stand up","0"
"68876307378113","3","-0.84895754","-0.123606294","9.764058","stand up","0"
"68876327307593","3","-0.81062984","-0.12121078","9.713753","stand up","0"
"68876347222801","3","-0.79146606","-0.152352","9.740103","stand up","0"
"68876367117540","3","-0.77469766","-0.21702996","9.819154","stand up","0"
"68876387032801","3","-0.73637","-0.20505258","9.859877","stand up","0"
"68876406973218","3","-0.6189916","-0.17151585","9.740103","stand up","0"
"68876426888478","3","-0.68127406","-0.17151585","9.706566","stand up","0"
"68876446805665","3","-0.9639405","-0.16672489","9.809572","stand up","0"
"68876466720926","3","-0.98070884","-0.13318819","9.82634","stand up","0"
"68876486573947","3","-0.8321892","-0.099651486","9.744894","stand up","0"
"68876506489207","3","-0.6692966","-0.05413738","9.706566","stand up","0"
"68876526473113","3","-0.67648304","-0.068510264","9.701775","stand up","0"
"68876546388374","3","-0.7842796","-0.27212593","9.74729","stand up","0"
"68876566271186","3","-0.99029076","-0.30566266","9.855085","stand up","0"
"68876586186395","3","-1.016641","-0.14516556","9.823945","stand up","0"
"68876606147332","3","-1.0932963","0.010540515","9.823945","stand up","0"
"68876626062540","3","-1.1004827","0.13270992","9.639493","stand up","0"
"68876645988947","3","-0.96873146","-0.015809774","9.452646","stand up","0"
"68876665904155","3","-0.72199714","-0.18349329","9.57721","stand up","0"
"68876685814415","3","-0.77469766","-0.2841033","9.905391","stand up","0"
"68876705729624","3","-0.93519473","-0.22182086","9.931741","stand up","0"
"68876725626759","3","-0.8297937","-0.094860554","9.742498","stand up","0"
"68876745542020","3","-0.78188413","0.027308851","9.567629","stand up","0"
"68876765468530","3","-0.6501328","0.18301497","9.452646","stand up","0"
"68876785383738","3","-0.49921766","0.063241065","9.529301","stand up","0"
"68876805310249","3","-0.53994083","-0.19786611","9.780826","stand up","0"
"68876825225509","3","-0.67648304","-0.26733503","9.914973","stand up","0"
"68876845140093","3","-0.6237825","-0.19547066","9.785617","stand up","0"
"68876865055353","3","-0.6189916","-0.20744804","9.687403","stand up","0"
"68876884982436","3","-0.81302536","-0.094860554","9.780826","stand up","0"
"68876904897697","3","-0.66450566","0.04886818","9.759267","stand up","0"
"68876924846395","3","-0.40818948","9.586215E-4","9.704171","stand up","0"
"68876944761603","3","-0.49921766","-0.08767411","9.754476","stand up","0"
"68876964674259","3","-0.6046187","-0.12839723","9.802386","stand up","0"
"68876984589520","3","-0.626178","-0.10683793","9.814363","stand up","0"
"68877004491343","3","-0.6453419","-0.08048767","9.742498","stand up","0"
"68877024406603","3","-0.6381554","-0.07569671","9.680216","stand up","0"
"68877044318530","3","-0.65492374","-0.08527863","9.704171","stand up","0"
"68877064233738","3","-0.66450566","-0.123606294","9.766453","stand up","0"
"68877084191551","3","-0.68606496","-0.12600175","9.814363","stand up","0"
"68877104106811","3","-0.6740876","-0.10683793","9.766453","stand up","0"
"68877124001343","3","-0.6165961","-0.11641985","9.69938","stand up","0"
"68877143916603","3","-0.6237825","-0.1307927","9.723335","stand up","0"
"68877163832228","3","-0.630969","-0.123606294","9.761662","stand up","0"
"68877183747436","3","-0.6740876","-0.11641985","9.75208","stand up","0"
"68877203664155","3","-0.70283335","-0.11641985","9.742498","stand up","0"
"68877223579363","3","-0.74595195","-0.08767411","9.716147","stand up","0"
"68877243533322","3","-0.73637","-0.08767411","9.730521","stand up","0"
"68877263448530","3","-0.6980424","-0.12121078","9.72573","stand up","0"
"68877283336395","3","-0.6597147","-0.11402434","9.785617","stand up","0"
"68877303251655","3","-0.6046187","-0.08527863","9.7880125","stand up","0"
"68877323155405","3","-0.53994083","-0.09246507","9.713753","stand up","0"
"68877343070665","3","-0.61420065","-0.11402434","9.692194","stand up","0"
"68877363030926","3","-0.7291836","-0.12600175","9.776035","stand up","0"
"68877382946134","3","-0.76990676","-0.11881533","9.819154","stand up","0"
"68877402844051","3","-0.71001977","-0.08288315","9.754476","stand up","0"
"68877422759363","3","-0.59743226","-0.094860554","9.764058","stand up","0"
"68877442676343","3","-0.5351498","-0.14516556","9.701775","stand up","0"
"68877462591551","3","-0.61180514","-0.15953842","9.720939","stand up","0"
"68877482517072","3","-0.741161","-0.123606294","9.756871","stand up","0"
"68877502432280","3","-0.78188413","-0.06611478","9.759267","stand up","0"
"68877522348530","3","-0.6908559","-0.094860554","9.776035","stand up","0"
"68877542263790","3","-0.5854549","-0.13558367","9.737708","stand up","0"
"68877562181707","3","-0.58305943","-0.13797912","9.706566","stand up","0"
"68877582096968","3","-0.6669012","-0.123606294","9.756871","stand up","0"
"68877602008582","3","-0.72199714","-0.08527863","9.761662","stand up","0"
"68877621923790","3","-0.72439265","-0.10204697","9.756871","stand up","0"
"68877641888426","3","-0.65492374","-0.123606294","9.759267","stand up","0"
"68877661803686","3","-0.6237825","-0.13318819","9.761662","stand up","0"
"68877681696551","3","-0.6285735","-0.12121078","9.742498","stand up","0"
"68877701612228","3","-0.6669012","-0.11641985","9.75208","stand up","0"
"68877721532957","3","-0.6980424","-0.10204697","9.754476","stand up","0"
"68877741484936","3","-0.6836695","-0.10204697","9.756871","stand up","0"
"68877761372905","3","-0.66450566","-0.11881533","9.771244","stand up","0"
"68877781288582","3","-0.65492374","-0.10923341","9.754476","stand up","0"
"68877801204832","3","-0.6597147","-0.10683793","9.7353115","stand up","0"
"68877821120509","3","-0.6525283","-0.10683793","9.716147","stand up","0"
"68877841034155","3","-0.6692966","-0.11162889","9.74729","stand up","0"
"68877860949832","3","-0.6692966","-0.123606294","9.768848","stand up","0"
"68877880889520","3","-0.66450566","-0.10444245","9.759267","stand up","0"
"68877900805197","3","-0.65492374","-0.12121078","9.759267","stand up","0"
"68877920749624","3","-0.65492374","-0.123606294","9.74729","stand up","0"
"68877940665249","3","-0.67169213","-0.11402434","9.754476","stand up","0"
"68877960578634","3","-0.6836695","-0.097256005","9.756871","stand up","0"
"68877980494311","3","-0.6692966","-0.10444245","9.744894","stand up","0"
"68878000412176","3","-0.6621102","-0.10444245","9.768848","stand up","0"
"68878020327853","3","-0.6597147","-0.10444245","9.756871","stand up","0"
"68878040233374","3","-0.6692966","-0.12839723","9.749685","stand up","0"
"68878060149051","3","-0.67169213","-0.11881533","9.744894","stand up","0"
"68878080050405","3","-0.6669012","-0.11402434","9.74729","stand up","0"
"68878099966134","3","-0.6669012","-0.10683793","9.744894","stand up","0"
"68878119927645","3","-0.6669012","-0.12121078","9.768848","stand up","0"
"68878139843322","3","-0.6669012","-0.11402434","9.756871","stand up","0"
"68878159728947","3","-0.66450566","-0.10923341","9.742498","stand up","0"
"68878179644624","3","-0.6669012","-0.11641985","9.759267","stand up","0"
"68878199595093","3","-0.6740876","-0.11641985","9.756871","stand up","0"
"68878219510718","3","-0.65731925","-0.10923341","9.74729","stand up","0"
"68878239399884","3","-0.65492374","-0.11881533","9.730521","stand up","0"
"68878259315561","3","-0.6597147","-0.099651486","9.749685","stand up","0"
"68878279227280","3","-0.6621102","-0.097256005","9.756871","stand up","0"
"68878299142957","3","-0.6692966","-0.11162889","9.744894","stand up","0"
"68878319058165","3","-0.6621102","-0.10923341","9.759267","stand up","0"
"68878338973843","3","-0.6621102","-0.11162889","9.766453","stand up","0"
"68878358857957","3","-0.6692966","-0.10923341","9.766453","stand up","0"
"68878378773634","3","-0.6740876","-0.12121078","9.759267","stand up","0"
"68878398717280","3","-0.67169213","-0.10683793","9.75208","stand up","0"
"68878418632957","3","-0.67887855","-0.10444245","9.776035","stand up","0"
"68878438507488","3","-0.67887855","-0.12839723","9.749685","stand up","0"
"68878458423165","3","-0.6621102","-0.11881533","9.744894","stand up","0"
"68878478414624","3","-0.65731925","-0.097256005","9.759267","stand up","0"
"68878498330249","3","-0.66450566","-0.11641985","9.756871","stand up","0"
"68878518244676","3","-0.67648304","-0.10444245","9.744894","stand up","0"
"68878538160353","3","-0.6621102","-0.11641985","9.74729","stand up","0"
"68878558048790","3","-0.6621102","-0.11881533","9.778431","stand up","0"
"68878577964415","3","-0.65731925","-0.11402434","9.754476","stand up","0"
"68878597883113","3","-0.6597147","-0.11402434","9.742498","stand up","0"
"68878617798790","3","-0.67169213","-0.11162889","9.740103","stand up","0"
"68878637696551","3","-0.67169213","-0.11402434","9.737708","stand up","0"
"68878657612280","3","-0.66450566","-0.11881533","9.754476","stand up","0"
"68878677548374","3","-0.6621102","-0.10444245","9.74729","stand up","0"
"68878697464051","3","-0.6692966","-0.123606294","9.728126","stand up","0"
"68878717356968","3","-0.6621102","-0.11881533","9.744894","stand up","0"
"68878737272645","3","-0.65492374","-0.10923341","9.74729","stand up","0"
"68878757206238","3","-0.65731925","-0.11402434","9.74729","stand up","0"
"68878777122072","3","-0.6597147","-0.1307927","9.749685","stand up","0"
"68878797036395","3","-0.6692966","-0.11162889","9.744894","stand up","0"
"68878816952280","3","-0.67887855","-0.10204697","9.737708","stand up","0"
"68878836898790","3","-0.66450566","-0.11881533","9.744894","stand up","0"
"68878856814624","3","-0.6692966","-0.12121078","9.754476","stand up","0"
"68878876703218","3","-0.6621102","-0.10444245","9.744894","stand up","0"
"68878896619103","3","-0.65492374","-0.11641985","9.7353115","stand up","0"
"68878916531603","3","-0.65731925","-0.11881533","9.754476","stand up","0"
"68878936447488","3","-0.6669012","-0.10923341","9.75208","stand up","0"
"68878956384832","3","-0.67169213","-0.10923341","9.74729","stand up","0"
"68878976300718","3","-0.65492374","-0.10444245","9.72573","stand up","0"
"68878996186863","3","-0.65492374","-0.11402434","9.75208","stand up","0"
"68879016102749","3","-0.6621102","-0.12121078","9.766453","stand up","0"
"68879036050509","3","-0.6692966","-0.11402434","9.768848","stand up","0"
"68879055966447","3","-0.67648304","-0.123606294","9.749685","stand up","0"
"68879075853322","3","-0.67169213","-0.11641985","9.754476","stand up","0"
"68879095769207","3","-0.6621102","-0.12121078","9.742498","stand up","0"
"68879115697072","3","-0.6597147","-0.11162889","9.74729","stand up","0"
"68879135612905","3","-0.6692966","-0.10444245","9.74729","stand up","0"
"68879155527540","3","-0.67169213","-0.10923341","9.756871","stand up","0"
"68879175443374","3","-0.66450566","-0.10683793","9.742498","stand up","0"
"68879195334207","3","-0.65731925","-0.123606294","9.756871","stand up","0"
"68879215250093","3","-0.6669012","-0.11402434","9.768848","stand up","0"
"68879235178218","3","-0.68127406","-0.097256005","9.75208","stand up","0"
"68879255094103","3","-0.67169213","-0.12121078","9.749685","stand up","0"
"68879274993009","3","-0.68606496","-0.12600175","9.74729","stand up","0"
"68879294908843","3","-0.6692966","-0.11162889","9.742498","stand up","0"
"68879314861968","3","-0.6525283","-0.11402434","9.744894","stand up","0"
"68879334777801","3","-0.67648304","-0.10683793","9.744894","stand up","0"
"68879354681655","3","-0.6692966","-0.11641985","9.754476","stand up","0"
"68879374597540","3","-0.6597147","-0.10683793","9.764058","stand up","0"
"68879394504155","3","-0.6669012","-0.11162889","9.761662","stand up","0"
"68879414420040","3","-0.6621102","-0.11881533","9.737708","stand up","0"
"68879434327488","3","-0.6621102","-0.10444245","9.759267","stand up","0"
"68879454243374","3","-0.6669012","-0.10923341","9.754476","stand up","0"
"68879474177957","3","-0.65731925","-0.09246507","9.744894","stand up","0"
"68879494093843","3","-0.6621102","-0.123606294","9.74729","stand up","0"
"68879533887540","3","-0.67169213","-0.10923341","9.744894","stand up","1"
"68879553803374","3","-0.65731925","-0.11641985","9.74729","none","1"
"68879573739936","3","-0.6525283","-0.123606294","9.75208","none","1"
"68879593655822","3","-0.6477373","-0.11641985","9.742498","none","1"
"68879613568790","3","-0.6501328","-0.10923341","9.744894","none","1"
"68879633484676","3","-0.6597147","-0.10683793","9.764058","none","1"
"68879653394728","3","-0.6740876","-0.12121078","9.749685","none","1"
"68879673310613","3","-0.6621102","-0.12839723","9.749685","none","1"
"68879693207801","3","-0.66450566","-0.11402434","9.742498","none","1"
"68879713123738","3","-0.65492374","-0.10204697","9.764058","none","1"
"68879733050665","3","-0.67648304","-0.097256005","9.764058","none","1"
"68879752966551","3","-0.6692966","-0.12121078","9.754476","none","1"
"68879772858530","3","-0.66450566","-0.11402434","9.742498","none","1"
"68879792774363","3","-0.6597147","-0.11402434","9.742498","none","1"
"68879812705509","3","-0.67648304","-0.11402434","9.742498","none","1"
"68879832621395","3","-0.67648304","-0.123606294","9.742498","none","1"
"68879852577020","3","-0.65492374","-0.12121078","9.749685","none","1"
"68879872492905","3","-0.6692966","-0.099651486","9.754476","none","1"
"68879892406968","3","-0.65731925","-0.12121078","9.7353115","none","1"
"68879912322853","3","-0.6597147","-0.12121078","9.74729","none","1"
"68879932222280","3","-0.6692966","-0.11641985","9.756871","none","1"
"68879952138165","3","-0.6692966","-0.11162889","9.756871","none","1"
"68879972052332","3","-0.66450566","-0.11402434","9.75208","none","1"
"68879991968165","3","-0.6597147","-0.123606294","9.749685","none","1"
"68880011863374","3","-0.6692966","-0.10444245","9.759267","none","1"
"68880031779207","3","-0.67169213","-0.10683793","9.74729","none","1"
"68880051729311","3","-0.6621102","-0.10444245","9.72573","none","1"
"68880071645145","3","-0.6669012","-0.11881533","9.7353115","none","1"
"68880091563061","3","-0.66450566","-0.10444245","9.74729","none","1"
"68880111478947","3","-0.65731925","-0.10683793","9.756871","none","1"
"68880131388738","3","-0.65492374","-0.10923341","9.749685","none","1"
"68880151304624","3","-0.65731925","-0.11162889","9.749685","none","1"
"68880171176290","3","-0.6621102","-0.11162889","9.759267","none","1"
"68880191092124","3","-0.67169213","-0.11162889","9.754476","none","1"
"68880211050874","3","-0.6692966","-0.10444245","9.728126","none","1"
"68880230966759","3","-0.65731925","-0.12121078","9.72573","none","1"
"68880250886290","3","-0.6669012","-0.11402434","9.75208","none","1"
"68880270802124","3","-0.6669012","-0.11402434","9.759267","none","1"
"68880290717697","3","-0.66450566","-0.11641985","9.754476","none","1"
"68880310633582","3","-0.67169213","-0.12600175","9.744894","none","1"
"68880330557540","3","-0.6740876","-0.10204697","9.759267","none","1"
"68880350473426","3","-0.6669012","-0.10444245","9.759267","none","1"
"68880370386968","3","-0.6669012","-0.10923341","9.768848","none","1"
"68880390302853","3","-0.6692966","-0.11402434","9.766453","none","1"
"68880410208686","3","-0.6621102","-0.11402434","9.756871","none","1"
"68880430124572","3","-0.6597147","-0.10683793","9.75208","none","1"
"68880450062176","3","-0.6621102","-0.11641985","9.764058","none","1"
"68880469978009","3","-0.6525283","-0.10923341","9.756871","none","1"
"68880489896551","3","-0.6692966","-0.12121078","9.732917","none","1"
"68880509812436","3","-0.67169213","-0.11881533","9.74729","none","1"
"68880529731707","3","-0.67169213","-0.11881533","9.75208","none","1"
"68880549647801","3","-0.6669012","-0.10444245","9.75208","none","1"
"68880569575301","3","-0.67169213","-0.10923341","9.75208","none","1"
"68880589491343","3","-0.6740876","-0.11402434","9.754476","none","1"
"68880609419051","3","-0.6669012","-0.10683793","9.74729","none","1"
"68880629335145","3","-0.67887855","-0.11162889","9.768848","none","1"
"68880649225718","3","-0.6597147","-0.10923341","9.756871","none","1"
"68880669141811","3","-0.6740876","-0.10923341","9.75208","none","1"
"68880689084520","3","-0.67648304","-0.10444245","9.761662","none","1"
"68880709000613","3","-0.67887855","-0.11641985","9.742498","none","1"
"68880728924051","3","-0.67169213","-0.11881533","9.74729","none","1"
"68880748840145","3","-0.6501328","-0.12839723","9.742498","none","1"
"68880768769728","3","-0.67169213","-0.12839723","9.730521","none","1"
"68880788685822","3","-0.6740876","-0.10683793","9.754476","none","1"
"68880808630197","3","-0.6621102","-0.11402434","9.754476","none","1"
"68880828546290","3","-0.6621102","-0.10444245","9.75208","none","1"
"68880848438582","3","-0.6597147","-0.10923341","9.759267","none","1"
"68880868354728","3","-0.6621102","-0.10923341","9.75208","none","1"
"68880888282176","3","-0.6477373","-0.11162889","9.742498","none","1"
"68880908198270","3","-0.65492374","-0.10683793","9.754476","none","1"
"68880928148061","3","-0.6669012","-0.10923341","9.764058","none","1"
"68880948064155","3","-0.67648304","-0.11881533","9.756871","none","1"
"68880967990926","3","-0.6740876","-0.11162889","9.75208","none","1"
"68880987907020","3","-0.65731925","-0.10204697","9.754476","none","1"
"68881007833426","3","-0.66450566","-0.11881533","9.759267","none","1"
"68881027749520","3","-0.6621102","-0.11881533","9.780826","none","1"
"68881047660978","3","-0.6692966","-0.11402434","9.756871","none","1"
"68881067577020","3","-0.6692966","-0.10444245","9.744894","none","1"
"68881087500718","3","-0.6669012","-0.11641985","9.754476","none","1"
"68881107416811","3","-0.67648304","-0.11641985","9.744894","none","1"
"68881127313165","3","-0.65492374","-0.12121078","9.744894","none","1"
"68881147229207","3","-0.6669012","-0.12121078","9.742498","none","1"
"68881167177228","3","-0.6740876","-0.11881533","9.749685","none","1"
"68881187093322","3","-0.6669012","-0.123606294","9.737708","none","1"
"68881207018790","3","-0.6740876","-0.11641985","9.742498","none","1"
"68881226934884","3","-0.68127406","-0.11162889","9.744894","none","1"
"68881246833374","3","-0.66450566","-0.11881533","9.75208","none","1"
"68881266749468","3","-0.65492374","-0.11641985","9.742498","none","1"
"68881286673790","3","-0.66450566","-0.11402434","9.742498","none","1"
"68881306589884","3","-0.6621102","-0.11162889","9.754476","none","1"
"68881326490457","3","-0.6669012","-0.10923341","9.754476","none","1"
"68881346406499","3","-0.67887855","-0.10444245","9.754476","none","1"
"68881366350145","3","-0.6669012","-0.11162889","9.754476","none","1"
"68881386266238","3","-0.6597147","-0.10683793","9.744894","none","1"
"68881406186603","3","-0.68846047","-0.11402434","9.737708","none","1"
"68881426102697","3","-0.67169213","-0.123606294","9.744894","none","1"
"68881446026343","3","-0.65731925","-0.12839723","9.759267","none","1"
"68881465942436","3","-0.65492374","-0.11641985","9.744894","none","1"
"68881485882384","3","-0.6525283","-0.11162889","9.744894","none","1"
"68881505798478","3","-0.6669012","-0.10683793","9.761662","none","1"
"68881525708218","3","-0.6669012","-0.11641985","9.754476","none","1"
"68881545624311","3","-0.6692966","-0.11162889","9.7353115","none","1"
"68881565537957","3","-0.6621102","-0.11162889","9.730521","none","1"
"68881585454676","3","-0.66450566","-0.10204697","9.740103","none","1"
"68881605402436","3","-0.6692966","-0.11402434","9.754476","none","1"
"68881625319155","3","-0.68127406","-0.12121078","9.749685","none","1"
"68881645229520","3","-0.6740876","-0.11162889","9.74729","none","1"
"68881665146186","3","-0.66450566","-0.12121078","9.759267","none","1"
"68881685060197","3","-0.6669012","-0.10683793","9.74729","none","1"
"68881704976915","3","-0.6597147","-0.10683793","9.740103","none","1"
"68881724905874","3","-0.68127406","-0.12121078","9.742498","none","1"
"68881744822593","3","-0.6692966","-0.11402434","9.744894","none","1"
"68881764745874","3","-0.6669012","-0.09246507","9.749685","none","1"
"68881784662593","3","-0.6621102","-0.10683793","9.7353115","none","1"
"68881804576030","3","-0.6501328","-0.11641985","9.766453","none","1"
"68881824492749","3","-0.6525283","-0.123606294","9.764058","none","1"
"68881844400457","3","-0.6621102","-0.11162889","9.759267","none","1"
"68881864317176","3","-0.65731925","-0.12600175","9.7353115","none","1"
"68881884274780","3","-0.6669012","-0.10444245","9.723335","none","1"
"68881904191499","3","-0.65731925","-0.10204697","9.756871","none","1"
"68881924100093","3","-0.65492374","-0.10923341","9.744894","none","1"
"68881944016811","3","-0.68127406","-0.10204697","9.742498","none","1"
"68881963935822","3","-0.67887855","-0.11402434","9.742498","none","1"
"68881983852540","3","-0.6669012","-0.12600175","9.740103","none","1"
"68882003788009","3","-0.6740876","-0.123606294","9.766453","none","1"
"68882023704728","3","-0.65731925","-0.11641985","9.756871","none","1"
"68882043618790","3","-0.6597147","-0.11162889","9.744894","none","1"
"68882063535509","3","-0.6621102","-0.10444245","9.744894","none","1"
"68882083440926","3","-0.65492374","-0.10444245","9.74729","none","1"
"68882103357645","3","-0.6525283","-0.10683793","9.761662","none","1"
"68882123288999","3","-0.6597147","-0.11641985","9.742498","none","1"
"68882143205718","3","-0.6692966","-0.11402434","9.754476","none","1"
"68882163120874","3","-0.67169213","-0.10683793","9.740103","none","1"
"68882183037593","3","-0.66450566","-0.10683793","9.75208","none","1"
"68882202963895","3","-0.65492374","-0.12121078","9.744894","none","1"
"68882222880613","3","-0.67887855","-0.11402434","9.759267","none","1"
"68882242789468","3","-0.66450566","-0.11641985","9.75208","none","1"
"68882262706134","3","-0.6836695","-0.11641985","9.72573","none","1"
"68882282649520","3","-0.6621102","-0.123606294","9.740103","none","1"
"68882302566238","3","-0.6453419","-0.10683793","9.744894","none","1"
"68882322478061","3","-0.6621102","-0.12839723","9.754476","none","1"
"68882342394780","3","-0.65731925","-0.11881533","9.759267","none","1"
"68882362334728","3","-0.6621102","-0.11881533","9.749685","none","1"
"68882382251447","3","-0.66450566","-0.11402434","9.742498","none","1"
"68882402134624","3","-0.67887855","-0.10683793","9.732917","none","1"
"68882422051343","3","-0.6621102","-0.12600175","9.740103","none","1"
"68882441999311","3","-0.6501328","-0.11162889","9.730521","none","1"
"68882461916030","3","-0.6477373","-0.12600175","9.730521","none","1"
"68882481832228","3","-0.6621102","-0.12600175","9.744894","none","1"
"68882501748947","3","-0.6597147","-0.12600175","9.75208","none","1"
"68882521666499","3","-0.65492374","-0.12600175","9.75208","none","1"
"68882541583218","3","-0.65731925","-0.11881533","9.740103","none","1"
"68882561491186","3","-0.67887855","-0.13318819","9.742498","none","1"
"68882581407905","3","-0.67169213","-0.12839723","9.74729","none","1"
"68882601355509","3","-0.6669012","-0.123606294","9.740103","none","1"
"68882621272801","3","-0.66450566","-0.10923341","9.754476","none","1"
"68882641156759","3","-0.66450566","-0.10923341","9.761662","none","1"
"68882661074103","3","-0.6692966","-0.12839723","9.756871","none","1"
"68882681013426","3","-0.6597147","-0.12121078","9.744894","none","1"
"68882700930770","3","-0.6621102","-0.11402434","9.74729","none","1"
"68882720846343","3","-0.6669012","-0.12839723","9.756871","none","1"
"68882740763634","3","-0.6597147","-0.123606294","9.740103","none","1"
"68882760680874","3","-0.6597147","-0.11641985","9.7353115","none","1"
"68882780598165","3","-0.67887855","-0.10923341","9.742498","none","1"
"68882800519520","3","-0.64294636","-0.123606294","9.759267","none","1"
"68882820436811","3","-0.65731925","-0.11881533","9.759267","none","1"
"68882840367176","3","-0.66450566","-0.1307927","9.761662","none","1"
"68882860284468","3","-0.6669012","-0.12121078","9.74729","none","1"
"68882880194155","3","-0.6597147","-0.10444245","9.740103","none","1"
"68882900111447","3","-0.6669012","-0.10683793","9.742498","none","1"
"68882920038218","3","-0.66450566","-0.11162889","9.761662","none","1"
"68882939955509","3","-0.65492374","-0.11162889","9.77364","none","1"
"68882959875770","3","-0.6740876","-0.123606294","9.75208","none","1"
"68882979793061","3","-0.66450566","-0.11881533","9.749685","none","1"
"68882999715874","3","-0.6597147","-0.11402434","9.7353115","none","1"
"68883019633218","3","-0.65731925","-0.12121078","9.742498","none","1"
"68883039552280","3","-0.6501328","-0.12600175","9.74729","none","1"
"68883059469572","3","-0.6597147","-0.11641985","9.74729","none","1"
"68883079390665","3","-0.6740876","-0.12121078","9.749685","none","1"
"68883099307957","3","-0.6597147","-0.11641985","9.737708","none","1"
"68883119230770","3","-0.6597147","-0.11162889","9.761662","none","1"
"68883139148061","3","-0.6621102","-0.11881533","9.749685","none","1"
"68883159079780","3","-0.67887855","-0.13318819","9.761662","none","1"
"68883178997072","3","-0.6597147","-0.11881533","9.768848","none","1"
"68883198938113","3","-0.6525283","-0.11402434","9.749685","none","1"
"68883218855457","3","-0.66450566","-0.12839723","9.749685","none","1"
"68883238782593","3","-0.6692966","-0.11641985","9.759267","none","1"
"68883258699884","3","-0.6692966","-0.11402434","9.759267","none","1"
"68883278589311","3","-0.6597147","-0.11402434","9.776035","none","1"
"68883298506603","3","-0.6621102","-0.11162889","9.75208","none","1"
"68883318427436","3","-0.6597147","-0.11881533","9.742498","none","1"
"68883338344728","3","-0.6597147","-0.10683793","9.766453","none","1"
"68883358290197","3","-0.6597147","-0.11641985","9.744894","none","1"
"68883378207488","3","-0.65731925","-0.123606294","9.74729","none","1"
"68883398128426","3","-0.6669012","-0.11402434","9.77364","none","1"
"68883418045718","3","-0.6501328","-0.12839723","9.75208","none","1"
"68883437928270","3","-0.6740876","-0.123606294","9.74729","none","1"
"68883457845561","3","-0.67169213","-0.11881533","9.737708","none","1"
"68883477777384","3","-0.65731925","-0.123606294","9.756871","none","1"
"68883497694676","3","-0.65731925","-0.12839723","9.756871","sit down","1"
"68883517621447","3","-0.6597147","-0.11641985","9.74729","sit down","1"
"68883537538738","3","-0.66450566","-0.123606294","9.75208","sit down","1"
"68883557461082","3","-0.6477373","-0.13558367","9.742498","sit down","1"
"68883577378374","3","-0.67887855","-0.11641985","9.742498","sit down","1"
"68883597306238","3","-0.6692966","-0.11641985","9.754476","sit down","1"
"68883617223530","3","-0.6740876","-0.13558367","9.75208","sit down","1"
"68883637137488","3","-0.6621102","-0.12121078","9.730521","sit down","1"
"68883657055145","3","-0.6501328","-0.11881533","9.732917","sit down","1"
"68883676983165","3","-0.67169213","-0.123606294","9.756871","sit down","1"
"68883696900822","3","-0.6692966","-0.11881533","9.754476","sit down","1"
"68883716814103","3","-0.65492374","-0.10204697","9.72573","sit down","1"
"68883736731759","3","-0.6501328","-0.11162889","9.7353115","sit down","1"
"68883756655613","3","-0.6597147","-0.11881533","9.744894","sit down","1"
"68883776573270","3","-0.6597147","-0.12600175","9.756871","sit down","1"
"68883796482749","3","-0.66450566","-0.11641985","9.759267","sit down","1"
"68883816400353","3","-0.67169213","-0.13797912","9.759267","sit down","1"
"68883836342384","3","-0.66450566","-0.10923341","9.764058","sit down","1"
"68883856260040","3","-0.6597147","-0.11402434","9.759267","sit down","1"
"68883876179520","3","-0.65731925","-0.12121078","9.740103","sit down","1"
"68883896097176","3","-0.66450566","-0.123606294","9.754476","sit down","1"
"68883916012176","3","-0.65731925","-0.123606294","9.744894","sit down","1"
"68883935929780","3","-0.6621102","-0.12600175","9.744894","sit down","1"
"68883955843322","3","-0.66450566","-0.11641985","9.749685","sit down","1"
"68883975760926","3","-0.68127406","-0.10683793","9.754476","sit down","1"
"68883995691759","3","-0.6692966","-0.12600175","9.75208","sit down","1"
"68884015609415","3","-0.66450566","-0.12121078","9.749685","sit down","1"
"68884035512384","3","-0.6692966","-0.11162889","9.75208","sit down","1"
"68884055430040","3","-0.6525283","-0.123606294","9.742498","sit down","1"
"68884075358165","3","-0.65492374","-0.10923341","9.723335","sit down","1"
"68884095275770","3","-0.6740876","-0.10683793","9.764058","sit down","1"
"68884115175457","3","-0.6621102","-0.11162889","9.764058","sit down","1"
"68884135093113","3","-0.6525283","-0.12121078","9.737708","sit down","1"
"68884155003947","3","-0.6621102","-0.10444245","9.737708","sit down","1"
"68884174921551","3","-0.65731925","-0.10683793","9.754476","sit down","1"
"68884194858582","3","-0.6669012","-0.123606294","9.761662","sit down","1"
"68884214776238","3","-0.6740876","-0.11402434","9.730521","sit down","1"
"68884234693895","3","-0.6669012","-0.10923341","9.75208","sit down","1"
"68884254611499","3","-0.6477373","-0.099651486","9.74729","sit down","1"
"68884274512280","3","-0.6621102","-0.11162889","9.730521","sit down","1"
"68884294429884","3","-0.6597147","-0.11162889","9.744894","sit down","1"
"68884314358843","3","-0.65731925","-0.10923341","9.764058","sit down","1"
"68884334276447","3","-0.66450566","-0.12121078","9.74729","sit down","1"
"68884354180665","3","-0.66450566","-0.123606294","9.720939","sit down","1"
"68884374098322","3","-0.6597147","-0.11162889","9.74729","sit down","1"
"68884394021655","3","-0.6597147","-0.11881533","9.759267","sit down","1"
"68884413939259","3","-0.67887855","-0.10683793","9.759267","sit down","1"
"68884433857801","3","-0.6980424","-0.11881533","9.7353115","sit down","1"
"68884453775405","3","-0.68127406","-0.12121078","9.766453","sit down","1"
"68884473688999","3","-0.67169213","-0.10204697","9.718544","sit down","1"
"68884493606603","3","-0.64294636","-0.10923341","9.756871","sit down","1"
"68884513525457","3","-0.67169213","-0.11881533","9.732917","sit down","1"
"68884533443061","3","-0.6956469","-0.11402434","9.720939","sit down","1"
"68884553358426","3","-0.6836695","-0.12600175","9.742498","sit down","1"
"68884573276082","3","-0.6621102","-0.1307927","9.72573","sit down","1"
"68884593178582","3","-0.6621102","-0.11162889","9.69938","sit down","1"
"68884613096186","3","-0.68606496","-0.097256005","9.764058","sit down","1"
"68884633025145","3","-0.68606496","-0.13797912","9.740103","sit down","1"
"68884652942749","3","-0.67887855","-0.13318819","9.704171","sit down","1"
"68884672866499","3","-0.68846047","-0.12121078","9.7353115","sit down","1"
"68884692784207","3","-0.67648304","-0.10683793","9.74729","sit down","1"
"68884712692853","3","-0.6621102","-0.10204697","9.754476","sit down","1"
"68884732610509","3","-0.65492374","-0.10923341","9.754476","sit down","1"
"68884752522593","3","-0.65492374","-0.14277011","9.754476","sit down","1"
"68884772440249","3","-0.6692966","-0.15953842","9.730521","sit down","1"
"68884792331759","3","-0.6980424","-0.08527863","9.713753","sit down","1"
"68884812249468","3","-0.66450566","-0.06132382","9.732917","sit down","1"
"68884832188895","3","-0.6525283","-0.097256005","9.759267","sit down","1"
"68884852106551","3","-0.65731925","-0.16193393","9.75208","sit down","1"
"68884872024884","3","-0.69325143","-0.1691204","9.756871","sit down","1"
"68884891942593","3","-0.73637","-0.097256005","9.701775","sit down","1"
"68884911860249","3","-0.7483474","-0.073301226","9.670634","sit down","1"
"68884931777957","3","-0.7483474","-0.08527863","9.687403","sit down","1"
"68884951682645","3","-0.7196017","-0.11881533","9.668239","sit down","1"
"68884971600353","3","-0.6836695","-0.16432944","9.704171","sit down","1"
"68884991515145","3","-0.6165961","-0.070905745","9.711357","sit down","1"
"68885011432801","3","-0.48724028","0.015331477","9.649075","sit down","1"
"68885031361603","3","-0.47526285","-0.020600706","9.704171","sit down","1"
"68885051279311","3","-0.59264135","0.0057495534","9.723335","sit down","1"
"68885071182384","3","-0.5591046","0.063241065","9.69938","sit down","1"
"68885091100040","3","-0.50879955","-0.015809774","9.740103","sit down","1"
"68885111021915","3","-0.7794886","-0.12121078","9.917368","sit down","1"
"68885130939572","3","-0.99029076","-0.1691204","9.740103","sit down","1"
"68885150861863","3","-0.6501328","-0.12121078","9.201119","sit down","1"
"68885170779520","3","-0.3914211","-0.11881533","9.203516","sit down","1"
"68885190677645","3","-0.70283335","-0.2936853","9.740103","sit down","1"
"68885210595301","3","-1.076528","-0.5044874","10.130566","sit down","1"
"68885230522853","3","-1.1915109","-0.44460037","10.082657","sit down","1"
"68885250440509","3","-1.18672","-0.45657775","10.077866","sit down","1"
"68885270358790","3","-1.0932963","-0.5140693","10.200035","sit down","1"
"68885290276447","3","-0.98310435","-0.3871089","10.092237","sit down","1"
"68885310183895","3","-0.9280083","-0.26973042","9.902996","sit down","1"
"68885330101551","3","-0.9280083","-0.24338022","9.680216","sit down","1"
"68885350021863","3","-0.93040377","-0.23858926","9.644284","sit down","1"
"68885369939572","3","-0.8321892","-0.20984349","9.730521","sit down","1"
"68885389849988","3","-0.741161","-0.14516556","9.685007","sit down","1"
"68885409767645","3","-0.7483474","-0.10204697","9.596374","sit down","1"
"68885429688218","3","-0.7627203","-0.08048767","9.634702","sit down","1"
"68885449605874","3","-0.7555339","-0.08767411","9.720939","sit down","1"
"68885469531447","3","-0.75313836","-0.06611478","9.723335","sit down","1"
"68885489449103","3","-0.7938615","-0.10683793","9.613143","sit down","1"
"68885509340874","3","-0.7842796","-0.14516556","9.57721","sit down","1"
"68885529258530","3","-0.78188413","-0.14516556","9.692194","sit down","1"
"68885549193530","3","-0.7842796","-0.13797912","9.740103","sit down","1"
"68885569111186","3","-0.8010479","-0.13318819","9.685007","sit down","1"
"68885589022905","3","-0.8393756","-0.15953842","9.62512","sit down","1"
"68885608940613","3","-0.89207613","-0.1906797","9.711357","sit down","1"
"68885628863843","3","-0.8872852","-0.1739113","9.785617","sit down","1"
"68885648781499","3","-0.91363543","-0.18828419","9.723335","sit down","1"
"68885668703009","3","-0.9327993","-0.21942547","9.7353115","sit down","1"
"68885688620665","3","-0.9543586","-0.23858926","9.7880125","sit down","1"
"68885708536238","3","-0.95914954","-0.24338022","9.804781","sit down","1"
"68885728453895","3","-0.9495676","-0.24817112","9.780826","sit down","1"
"68885748368790","3","-0.91363543","-0.25296214","9.77364","sit down","1"
"68885768286447","3","-0.91124","-0.23858926","9.79999","sit down","1"
"68885788199988","3","-0.9208219","-0.22661188","9.79999","sit down","1"
"68885808117645","3","-0.91124","-0.24577567","9.835922","sit down","1"
"68885828040926","3","-0.87770325","-0.24098471","9.809572","sit down","1"
"68885847958582","3","-0.8657259","-0.22182086","9.723335","sit down","1"
"68885867874572","3","-0.8537485","-0.19786611","9.704171","sit down","1"
"68885887792176","3","-0.8297937","-0.19307515","9.728126","sit down","1"
"68885907710822","3","-0.8537485","-0.16672489","9.718544","sit down","1"
"68885927628478","3","-0.8369801","-0.14516556","9.7089615","sit down","1"
"68885947541915","3","-0.8369801","-0.16672489","9.704171","sit down","1"
"68885967459624","3","-0.846562","-0.1691204","9.723335","sit down","1"
"68885987377801","3","-0.84177107","-0.16193393","9.706566","sit down","1"
"68886007295457","3","-0.84177107","-0.15953842","9.665843","sit down","1"
"68886027204468","3","-0.846562","-0.16432944","9.668239","sit down","1"
"68886047122124","3","-0.87770325","-0.17630681","9.7089615","sit down","1"
"68886067038686","3","-0.8753078","-0.19307515","9.718544","sit down","1"
"68886086956343","3","-0.8657259","-0.20984349","9.728126","sit down","1"
"68886106887853","3","-0.87770325","-0.1906797","9.75208","sit down","1"
"68886126805457","3","-0.8824942","-0.20265707","9.744894","sit down","1"
"68886146687593","3","-0.8896806","-0.20265707","9.766453","sit down","1"
"68886166605197","3","-0.89926255","-0.212239","9.754476","sit down","1"
"68886186545613","3","-0.90165806","-0.212239","9.756871","sit down","1"
"68886206463218","3","-0.89447165","-0.21463445","9.7880125","sit down","1"
"68886226393843","3","-0.8968671","-0.20984349","9.768848","sit down","1"
"68886246311447","3","-0.8753078","-0.20744804","9.74729","sit down","1"
"68886266217853","3","-0.8896806","-0.20505258","9.759267","sit down","1"
"68886286135457","3","-0.87051684","-0.20744804","9.728126","sit down","1"
"68886306053009","3","-0.86333036","-0.20265707","9.716147","sit down","1"
"68886325970613","3","-0.85853946","-0.18828419","9.732917","sit down","1"
"68886345895093","3","-0.85614395","-0.19307515","9.737708","sit down","1"
"68886365812697","3","-0.85853946","-0.1906797","9.713753","sit down","1"
"68886385726343","3","-0.8537485","-0.18588868","9.713753","sit down","1"
"68886405643947","3","-0.85614395","-0.18349329","9.704171","sit down","1"
"68886425548218","3","-0.84895754","-0.17151585","9.706566","sit down","1"
"68886445465822","3","-0.86333036","-0.1906797","9.730521","sit down","1"
"68886465381343","3","-0.8848897","-0.17870227","9.718544","sit down","1"
"68886485298999","3","-0.86333036","-0.18109778","9.701775","sit down","1"
"68886505227332","3","-0.87051684","-0.18349329","9.728126","sit down","1"
"68886525144884","3","-0.8753078","-0.18828419","9.720939","sit down","1"
"68886545067957","3","-0.87770325","-0.20026156","9.744894","sit down","1"
"68886564985561","3","-0.88009876","-0.18828419","9.754476","sit down","1"
"68886584910613","3","-0.8824942","-0.18828419","9.740103","sit down","1"
"68886604801343","3","-0.8968671","-0.20026156","9.74729","sit down","1"
"68886624732853","3","-0.8872852","-0.20984349","9.744894","sit down","1"
"68886644624103","3","-0.8729123","-0.20505258","9.749685","sit down","1"
"68886664541707","3","-0.86333036","-0.17870227","9.72573","sit down","1"
"68886684478113","3","-0.8681213","-0.19307515","9.7353115","sit down","1"
"68886704395718","3","-0.85853946","-0.18349329","9.723335","sit down","1"
"68886724323322","3","-0.87051684","-0.1906797","9.72573","sit down","1"
"68886744240926","3","-0.8609349","-0.20265707","9.742498","sit down","1"
"68886764133947","3","-0.85614395","-0.20265707","9.718544","sit down","1"
"68886784051551","3","-0.87051684","-0.1906797","9.711357","sit down","1"
"68886803982593","3","-0.85853946","-0.20265707","9.742498","sit down","1"
"68886823900197","3","-0.8824942","-0.19786611","9.754476","sit down","1"
"68886843798634","3","-0.8824942","-0.19307515","9.718544","sit down","1"
"68886863716238","3","-0.8753078","-0.20265707","9.72573","sit down","1"
"68886883663061","3","-0.8657259","-0.18349329","9.759267","sit down","1"
"68886903580665","3","-0.8872852","-0.1906797","9.742498","sit down","1"
"68886923480040","3","-0.88009876","-0.20265707","9.720939","sit down","1"
"68886943397645","3","-0.8753078","-0.18828419","9.737708","sit down","1"
"68886963318478","3","-0.86333036","-0.18828419","9.720939","sit down","1"
"68886983236030","3","-0.8681213","-0.212239","9.716147","sit down","1"
"68887003161551","3","-0.8753078","-0.20984349","9.749685","sit down","1"
"68887023079207","3","-0.88009876","-0.19547066","9.7353115","sit down","1"
"68887042997645","3","-0.851353","-0.20984349","9.749685","sit down","1"
"68887062915249","3","-0.851353","-0.19547066","9.723335","sit down","1"
"68887082832072","3","-0.8681213","-0.18109778","9.732917","sit down","1"
"68887102749676","3","-0.8681213","-0.19786611","9.74729","sit down","1"
"68887122678686","3","-0.87770325","-0.19547066","9.759267","sit down","1"
"68887142596343","3","-0.8729123","-0.18828419","9.737708","sit down","1"
"68887162485822","3","-0.87051684","-0.19786611","9.74729","sit down","1"
"68887182403426","3","-0.8872852","-0.20744804","9.72573","sit down","1"
"68887202317072","3","-0.8824942","-0.19786611","9.7353115","sit down","1"
"68887222234676","3","-0.87770325","-0.19786611","9.723335","sit down","1"
"68887242150613","3","-0.87051684","-0.19786611","9.713753","sit down","1"
"68887262068218","3","-0.87770325","-0.19307515","9.718544","sit down","1"
"68887281995822","3","-0.8609349","-0.17870227","9.7353115","sit down","1"
"68887301913426","3","-0.86333036","-0.18588868","9.728126","sit down","1"
"68887321830770","3","-0.8537485","-0.1906797","9.713753","sit down","1"
"68887341748374","3","-0.86333036","-0.18109778","9.737708","sit down","1"
"68887361668113","3","-0.8681213","-0.19307515","9.75208","sit down","1"
"68887381585718","3","-0.87051684","-0.1906797","9.72573","sit down","1"
"68887401501968","3","-0.88009876","-0.18828419","9.716147","sit down","1"
"68887421419572","3","-0.8729123","-0.19786611","9.754476","sit down","1"
"68887441350145","3","-0.8872852","-0.19547066","9.7353115","sit down","1"
"68887461267697","3","-0.8729123","-0.18349329","9.723335","sit down","1"
"68887481175405","3","-0.8753078","-0.19547066","9.768848","sit down","1"
"68887501092957","3","-0.8753078","-0.19547066","9.754476","lay down","1"
"68887521005457","3","-0.87051684","-0.18828419","9.730521","lay down","1"
"68887540923061","3","-0.87770325","-0.18588868","9.754476","lay down","1"
"68887560848009","3","-0.87770325","-0.19786611","9.742498","lay down","1"
"68887580765613","3","-0.87770325","-0.18828419","9.742498","lay down","1"
"68887600663843","3","-0.8824942","-0.19786611","9.740103","lay down","1"
"68887620581499","3","-0.8657259","-0.19547066","9.7353115","lay down","1"
"68887640501082","3","-0.8848897","-0.19547066","9.716147","lay down","1"
"68887660418582","3","-0.87770325","-0.19307515","9.716147","lay down","1"
"68887680353426","3","-0.87051684","-0.1906797","9.759267","lay down","1"
"68887700270926","3","-0.8657259","-0.19307515","9.730521","lay down","1"
"68887720169884","3","-0.8729123","-0.18588868","9.704171","lay down","1"
"68887740087384","3","-0.86333036","-0.19547066","9.7353115","lay down","1"
"68887760018947","3","-0.8753078","-0.19307515","9.740103","lay down","1"
"68887779936447","3","-0.8824942","-0.19547066","9.737708","lay down","1"
"68887799857020","3","-0.8609349","-0.20744804","9.771244","lay down","1"
"68887819774520","3","-0.8609349","-0.20744804","9.728126","lay down","1"
"68887839687540","3","-0.8657259","-0.212239","9.670634","lay down","1"
"68887859605040","3","-0.87051684","-0.20026156","9.692194","lay down","1"
"68887879518843","3","-0.87770325","-0.20026156","9.785617","lay down","1"
"68887899436343","3","-0.89207613","-0.19547066","9.792804","lay down","1"
"68887919349207","3","-0.8537485","-0.19547066","9.701775","lay down","1"
"68887939266655","3","-0.84177107","-0.1691204","9.653866","lay down","1"
"68887959202228","3","-0.8321892","-0.16432944","9.790408","lay down","1"
"68887979119728","3","-0.87770325","-0.18109778","9.740103","lay down","1"
"68887999027697","3","-0.91363543","-0.20026156","9.591583","lay down","1"
"68888018945197","3","-0.91603094","-0.22421637","9.732917","lay down","1"
"68888038868843","3","-0.90165806","-0.21942547","9.857482","lay down","1"
"68888058786290","3","-0.8848897","-0.2553576","9.756871","lay down","1"
"68888078705197","3","-0.906449","-0.24577567","9.75208","lay down","1"
"68888098622749","3","-0.961545","-0.22182086","9.771244","lay down","1"
"68888118517697","3","-0.9543586","-0.22421637","9.689797","lay down","1"
"68888138435197","3","-0.91363543","-0.24098471","9.730521","lay down","1"
"68888158363947","3","-0.8824942","-0.21463445","9.677821","lay down","1"
"68888178281447","3","-0.8441666","-0.14516556","9.668239","lay down","1"
"68888198204207","3","-0.8297937","-0.11162889","9.778431","lay down","1"
"68888218121655","3","-0.9280083","-0.14037463","9.6562605","lay down","1"
"68888238029363","3","-1.0190365","-0.16193393","9.562838","lay down","1"
"68888257946863","3","-1.0214319","-0.1691204","9.692194","lay down","1"
"68888277865145","3","-0.99029076","-0.152352","9.831131","lay down","1"
"68888297782645","3","-0.8896806","-0.1307927","9.816758","lay down","1"
"68888317722593","3","-0.741161","-0.12121078","9.804781","lay down","1"
"68888337640093","3","-0.6956469","-0.10683793","9.929346","lay down","1"
"68888357550197","3","-0.7842796","-0.11881533","9.77364","lay down","1"
"68888377467697","3","-0.9399857","-0.212239","9.553256","lay down","1"
"68888397391499","3","-0.9088445","-0.26493952","9.761662","lay down","1"
"68888417308999","3","-0.82739824","-0.1906797","9.898205","lay down","1"
"68888437233270","3","-0.76751125","-0.1691204","9.670634","lay down","1"
"68888457150770","3","-0.78188413","-0.3080581","9.615538","lay down","1"
"68888477064832","3","-0.9854998","-0.37513152","9.792804","lay down","1"
"68888496969468","3","-1.0070591","-0.24577567","9.929346","lay down","1"
"68888516886968","3","-0.7842796","-0.15953842","9.912578","lay down","1"
"68888536825978","3","-0.68606496","-0.19307515","9.759267","lay down","1"
"68888556743478","3","-0.76751125","-0.30326715","9.668239","lay down","1"
"68888576654988","3","-0.85853946","-0.37273607","9.701775","lay down","1"
"68888596572488","3","-1.0046636","-0.37992254","9.737708","lay down","1"
"68888616464832","3","-1.1028782","-0.22182086","9.7353115","lay down","1"
"68888636382280","3","-0.96633595","-0.008623332","9.60356","lay down","1"
"68888656335301","3","-0.6094097","-0.13558367","9.548465","lay down","1"
"68888676252801","3","-0.46089","-0.28889433","9.823945","lay down","1"
"68888696163530","3","-0.626178","-0.20265707","9.989233","lay down","1"
"68888716081030","3","-0.9759179","0.032099843","9.816758","lay down","1"
"68888736002332","3","-1.1459968","0.21176071","9.478996","lay down","1"
"68888755919832","3","-1.026223","-0.018205225","9.304126","lay down","1"
"68888775838113","3","-0.83458465","-0.22900733","9.60356","lay down","1"
"68888795755665","3","-0.8082344","-0.22421637","9.821548","lay down","1"
"68888815679363","3","-0.88009876","-0.24098471","9.749685","lay down","1"
"68888835596863","3","-0.8609349","-0.2793124","9.653866","lay down","1"
"68888855490509","3","-0.69325143","-0.37752703","9.761662","lay down","1"
"68888875407957","3","-0.5303589","-0.3439903","9.804781","lay down","1"
"68888895318530","3","-0.5519182","-0.32722196","9.718544","lay down","1"
"68888915236030","3","-0.67887855","-0.39908633","9.809572","lay down","1"
"68888935185197","3","-0.80583894","-0.25296214","9.982046","lay down","1"
"68888955102749","3","-0.75313836","-0.12600175","9.761662","lay down","1"
"68888975000405","3","-0.68127406","-0.06132382","9.493369","lay down","1"
"68888994917853","3","-0.79146606","-0.020600706","9.665843","lay down","1"
"68889014837072","3","-0.8537485","-0.15953842","9.871854","lay down","1"
"68889034754572","3","-0.8729123","-0.5452105","9.9796505","lay down","1"
"68889054680718","3","-0.95914954","-0.6290523","9.967674","lay down","1"
"68889074598218","3","-0.85853946","-0.46615967","9.766453","lay down","1"
"68889094506290","3","-0.8226073","-0.36315414","9.632307","lay down","1"
"68889114423790","3","-0.83458465","-0.22661188","9.586792","lay down","1"
"68889134359415","3","-0.8321892","-0.17870227","9.75208","lay down","1"
"68889154276915","3","-0.8321892","-0.24577567","9.912578","lay down","1"
"68889174184207","3","-0.9256128","-0.3008717","9.82634","lay down","1"
"68889194101707","3","-0.89926255","-0.19307515","9.62512","lay down","1"
"68889213991655","3","-0.7555339","-0.042160004","9.500555","lay down","1"
"68889233909155","3","-0.6237825","0.036890775","9.555651","lay down","1"
"68889253864051","3","-0.4728674","0.068032","9.732917","lay down","1"
"68889273781551","3","-0.4824493","-0.008623332","9.804781","lay down","1"
"68889293683947","3","-0.6046187","-0.11402434","9.62512","lay down","1"
"68889313601447","3","-0.6956469","-0.20265707","9.5173235","lay down","1"
"68889333541655","3","-0.83458465","-0.2553576","9.500555","lay down","1"
"68889353459155","3","-0.9088445","-0.20984349","9.526905","lay down","1"
"68889373367228","3","-0.9040535","-0.19547066","9.661052","lay down","1"
"68889393284728","3","-0.8681213","-0.24338022","9.828736","lay down","1"
"68889413196499","3","-0.8393756","-0.2553576","9.785617","lay down","1"
"68889433113999","3","-0.8441666","-0.17151585","9.677821","lay down","1"
"68889453034624","3","-0.80344343","-0.2553576","9.637098","lay down","1"
"68889472952124","3","-0.8082344","-0.44460037","9.804781","lay down","1"
"68889492878061","3","-0.80344343","-0.5907246","9.967674","lay down","1"
"68889512795718","3","-0.7770932","-0.6386341","10.008397","lay down","1"
"68889532704311","3","-0.7794886","-0.52844214","9.778431","lay down","1"
"68889552621968","3","-0.5351498","-0.7248714","9.69938","lay down","1"
"68889572548061","3","-0.4584945","-0.717685","9.740103","lay down","1"
"68889592465665","3","-0.72439265","-0.40148178","9.780826","lay down","1"
"68889612383790","3","-1.1244376","0.2141562","9.893414","lay down","1"
"68889632301447","3","-1.1196465","0.42735377","9.723335","lay down","1"
"68889652217749","3","-0.8321892","-0.2793124","9.938928","lay down","1"
"68889672135405","3","-0.8848897","-0.36794505","10.267108","lay down","1"
"68889692058009","3","-0.95914954","-0.022996157","9.869459","lay down","1"
"68889711975665","3","-0.87770325","-0.044555485","9.591583","lay down","1"
"68889731907436","3","-0.6908559","-0.3008717","9.553256","lay down","1"
"68889751825093","3","-0.7339746","-0.3439903","9.495764","lay down","1"
"68889771732072","3","-0.91124","-0.26493952","9.529301","lay down","1"
"68889791649728","3","-0.9974772","-0.22900733","9.663447","lay down","1"
"68889811572645","3","-0.79865247","-0.1739113","9.589188","lay down","1"
"68889831490249","3","-0.59743226","-0.18588868","9.593979","lay down","1"
"68889851408634","3","-0.6477373","-0.36075863","9.668239","lay down","1"
"68889871326290","3","-0.72439265","-0.5547924","9.692194","lay down","1"
"68889891241082","3","-0.630969","-0.7320578","9.835922","lay down","1"
"68889911158686","3","-0.59743226","-0.6410296","9.9005995","lay down","1"
"68889931069468","3","-0.73876554","-0.16432944","9.591583","lay down","1"
"68889950987072","3","-0.73876554","-0.14277011","9.474205","lay down","1"
"68889970918061","3","-0.9088445","0.07761392","10.0060005","lay down","1"
"68889990835665","3","-1.1915109","0.31955725","10.166498","lay down","1"
"68890010763374","3","-1.407104","-0.03497356","9.864668","lay down","1"
"68890030681030","3","-1.131624","-0.06611478","9.888623","lay down","1"
"68890050607436","3","-0.64294636","-0.05653289","9.701775","lay down","1"
"68890070525093","3","-0.68606496","-0.2553576","9.438272","lay down","1"
"68890090440405","3","-0.68846047","-0.47574165","9.807176","lay down","1"
"68890110358061","3","-0.6525283","-0.43980947","10.008397","lay down","1"
"68890130285197","3","-0.6094097","-0.20505258","9.500555","lay down","1"
"68890150202853","3","-0.6070142","-0.099651486","9.316103","lay down","1"
"68890170101447","3","-0.6525283","-0.17151585","9.730521","lay down","1"
"68890190019051","3","-0.6501328","-0.12600175","9.795198","lay down","1"
"68890209981030","3","-0.73157907","0.04886818","9.5173235","lay down","1"
"68890229898686","3","-0.9184264","0.07282296","9.608352","lay down","1"
"68890249820978","3","-1.2873302","-0.037369043","10.092237","lay down","1"
"68890269738582","3","-1.4981322","-0.23858926","10.015583","lay down","1"
"68890289662332","3","-1.3687763","-0.44460037","9.486182","lay down","1"
"68890309579988","3","-1.0549687","-0.37034056","9.553256","lay down","1"
"68890329487020","3","-0.7148107","-0.22421637","9.876645","lay down","1"
"68890349404624","3","-0.571082","-0.26733503","9.833527","lay down","1"
"68890369333790","3","-0.6956469","-0.30326715","9.62512","lay down","1"
"68890389251447","3","-0.8848897","-0.26014856","9.591583","lay down","1"
"68890409182332","3","-0.96873146","-0.18828419","9.766453","lay down","1"
"68890429099936","3","-1.0334094","-0.15953842","9.759267","lay down","1"
"68890449016186","3","-1.0238274","-0.14516556","9.692194","lay down","1"
"68890468933843","3","-1.026223","-0.123606294","9.704171","lay down","1"
"68890488856655","3","-1.076528","-0.12600175","9.764058","lay down","1"
"68890508774311","3","-1.0070591","-0.18349329","9.766453","lay down","1"
"68890528661499","3","-0.9783133","-0.1906797","9.737708","lay down","1"
"68890548579363","3","-0.9543586","-0.20505258","9.780826","lay down","1"
"68890568543426","3","-0.88009876","-0.22661188","9.821548","lay down","1"
"68890588461343","3","-0.8537485","-0.24098471","9.780826","lay down","1"
"68890608375457","3","-0.91124","-0.20505258","9.730521","lay down","1"
"68890628293374","3","-0.9327993","-0.19547066","9.665843","lay down","1"
"68890648185457","3","-0.91603094","-0.15474752","9.737708","lay down","1"
"68890668103374","3","-0.91124","-0.15953842","9.730521","lay down","1"
"68890688037280","3","-0.94717216","-0.17630681","9.663447","lay down","1"
"68890707955197","3","-0.9711269","-0.1906797","9.74729","lay down","1"
"68890727877957","3","-0.98310435","-0.18349329","9.778431","lay down","1"
"68890747795874","3","-0.9759179","-0.22182086","9.744894","lay down","1"
"68890767713843","3","-0.9639405","-0.24098471","9.771244","lay down","1"
"68890787631759","3","-0.93759024","-0.25056663","9.75208","lay down","1"
"68890807571082","3","-0.93759024","-0.24338022","9.778431","lay down","1"
"68890827488999","3","-0.9639405","-0.23619375","9.730521","lay down","1"
"68890847388582","3","-0.96633595","-0.24577567","9.692194","lay down","1"
"68890867306499","3","-0.9567541","-0.21463445","9.701775","lay down","1"
"68890887231603","3","-0.96873146","-0.20744804","9.694589","lay down","1"
"68890907149520","3","-0.98789525","-0.17630681","9.711357","lay down","1"
"68890927081186","3","-0.99029076","-0.17870227","9.732917","lay down","1"
"68890946999103","3","-0.96873146","-0.20026156","9.675425","lay down","1"
"68890966909832","3","-0.961545","-0.18349329","9.720939","lay down","1"
"68890986827749","3","-0.9399857","-0.18828419","9.756871","lay down","1"
"68891006723426","3","-0.95196307","-0.18588868","9.740103","lay down","1"
"68891026641290","3","-0.9495676","-0.18109778","9.7353115","lay down","1"
"68891046583165","3","-0.93519473","-0.18349329","9.7089615","lay down","1"
"68891066501082","3","-0.93519473","-0.17630681","9.704171","lay down","1"
"68891086424103","3","-0.9280083","-0.18588868","9.754476","lay down","1"
"68891106342020","3","-0.94477665","-0.21702996","9.740103","lay down","1"
"68891126255926","3","-0.9495676","-0.24577567","9.728126","lay down","1"
"68891146173843","3","-0.9327993","-0.24098471","9.723335","lay down","1"
"68891166086343","3","-0.91603094","-0.21942547","9.701775","lay down","1"
"68891186004259","3","-0.9208219","-0.20744804","9.749685","lay down","1"
"68891205913322","3","-0.9543586","-0.21702996","9.711357","lay down","1"
"68891225831238","3","-0.9639405","-0.21942547","9.766453","lay down","1"
"68891245725093","3","-0.9854998","-0.212239","9.754476","lay down","1"
"68891265642957","3","-0.9639405","-0.20265707","9.7089615","lay down","1"
"68891285564155","3","-0.96633595","-0.20744804","9.728126","lay down","1"
"68891305482072","3","-0.9711269","-0.1906797","9.740103","lay down","1"
"68891325431759","3","-0.961545","-0.212239","9.69938","lay down","1"
"68891345349624","3","-0.9543586","-0.19547066","9.711357","lay down","1"
"68891365256707","3","-0.9567541","-0.19547066","9.711357","lay down","1"
"68891385183009","3","-0.9567541","-0.20265707","9.732917","lay down","1"
"68891405082905","3","-0.961545","-0.19786611","9.740103","lay down","1"
"68891425024259","3","-0.95914954","-0.22661188","9.75208","lay down","1"
"68891444942176","3","-0.9567541","-0.20505258","9.716147","lay down","1"
"68891464826395","3","-0.95914954","-0.20026156","9.72573","lay down","1"
"68891484744311","3","-0.9543586","-0.20984349","9.740103","lay down","1"
"68891504676186","3","-0.94238114","-0.21942547","9.720939","sit up","1"
"68891524594051","3","-0.9256128","-0.20984349","9.737708","sit up","1"
"68891544498374","3","-0.9399857","-0.21463445","9.711357","sit up","1"
"68891564416290","3","-0.961545","-0.21942547","9.706566","sit up","1"
"68891584343009","3","-0.96633595","-0.20505258","9.7353115","sit up","1"
"68891604260926","3","-0.9543586","-0.20984349","9.740103","sit up","1"
"68891624163634","3","-0.9399857","-0.21942547","9.718544","sit up","1"
"68891644081551","3","-0.93519473","-0.20026156","9.704171","sit up","1"
"68891664026290","3","-0.9567541","-0.21463445","9.718544","sit up","1"
"68891683944155","3","-0.94717216","-0.21463445","9.7353115","sit up","1"
"68891703841551","3","-0.94477665","-0.21942547","9.723335","sit up","1"
"68891723759415","3","-0.95914954","-0.20265707","9.711357","sit up","1"
"68891743677957","3","-0.96633595","-0.20265707","9.720939","sit up","1"
"68891763595874","3","-0.95914954","-0.21702996","9.744894","sit up","1"
"68891783505145","3","-0.95914954","-0.19786611","9.713753","sit up","1"
"68891803423061","3","-0.9543586","-0.20505258","9.718544","sit up","1"
"68891823353478","3","-0.9495676","-0.20984349","9.716147","sit up","1"
"68891843271395","3","-0.95196307","-0.20505258","9.704171","sit up","1"
"68891863190509","3","-0.9567541","-0.20984349","9.728126","sit up","1"
"68891883108426","3","-0.95196307","-0.20744804","9.771244","sit up","1"
"68891903012853","3","-0.961545","-0.20744804","9.771244","sit up","1"
"68891922930770","3","-0.9327993","-0.20984349","9.730521","sit up","1"
"68891942871238","3","-0.94477665","-0.19786611","9.694589","sit up","1"
"68891962789155","3","-0.94238114","-0.19786611","9.701775","sit up","1"
"68891982687072","3","-0.9495676","-0.20505258","9.706566","sit up","1"
"68892002604988","3","-0.9567541","-0.23619375","9.75208","sit up","1"
"68892022530249","3","-0.9184264","-0.20744804","9.716147","sit up","1"
"68892042448113","3","-0.93040377","-0.212239","9.69938","sit up","1"
"68892062355561","3","-0.93759024","-0.19547066","9.7353115","sit up","1"
"68892082273478","3","-0.94477665","-0.19547066","9.646679","sit up","1"
"68892102195301","3","-0.98310435","-0.20265707","9.613143","sit up","1"
"68892122113218","3","-1.031014","-0.20026156","9.670634","sit up","1"
"68892142034624","3","-1.0837145","-0.14516556","9.716147","sit up","1"
"68892161952540","3","-1.0525732","-0.16672489","9.792804","sit up","1"
"68892181860145","3","-0.99029076","-0.30566266","9.833527","sit up","1"
"68892201778061","3","-0.98310435","-0.3152446","9.713753","sit up","1"
"68892221691603","3","-0.9327993","-0.20744804","9.579606","sit up","1"
"68892241609520","3","-0.99508166","-0.24338022","9.696984","sit up","1"
