"Timestamp","Accuracy","Acceleration X","Acceleration Y","Acceleration Z","Label","Cycle"
"323254700283517","3","-0.6908559","-0.6290523","9.766453","stand up","0"
"323254720201433","3","-0.68606496","-0.66019344","9.718544","none","0"
"323254740115652","3","-0.6525283","-0.6410296","9.7353115","none","0"
"323254760033621","3","-0.6525283","-0.6482161","9.732917","none","0"
"323254779943360","3","-0.6669012","-0.6458206","9.713753","none","0"
"323254799861277","3","-0.6836695","-0.6434251","9.754476","none","0"
"323254819784246","3","-0.6621102","-0.6434251","9.742498","none","0"
"323254839702162","3","-0.65492374","-0.6362387","9.7353115","none","0"
"323254859625235","3","-0.6669012","-0.6362387","9.728126","none","0"
"323254879543152","3","-0.65492374","-0.6362387","9.730521","none","0"
"323254899461642","3","-0.6501328","-0.6434251","9.754476","none","0"
"323254919379558","3","-0.67169213","-0.6434251","9.740103","none","0"
"323254939305808","3","-0.6692966","-0.6410296","9.701775","none","0"
"323254959223725","3","-0.6621102","-0.6410296","9.730521","none","0"
"323254979149246","3","-0.6669012","-0.6458206","9.744894","none","0"
"323254999067162","3","-0.6692966","-0.6290523","9.720939","none","0"
"323255018986798","3","-0.66450566","-0.6434251","9.7353115","none","0"
"323255038904714","3","-0.630969","-0.6434251","9.732917","none","0"
"323255058824558","3","-0.6980424","-0.61947036","9.728126","none","0"
"323255078742475","3","-0.65731925","-0.6314477","9.7353115","none","0"
"323255098664819","3","-0.7124152","-0.66258895","9.75208","none","0"
"323255118582735","3","-0.630969","-0.6386341","9.754476","none","0"
"323255138502683","3","-0.67648304","-0.6386341","9.749685","none","0"
"323255158420600","3","-0.6501328","-0.6458206","9.732917","none","0"
"323255178343933","3","-0.6621102","-0.65300703","9.706566","none","0"
"323255198261850","3","-0.6692966","-0.6434251","9.749685","none","0"
"323255218195027","3","-0.6740876","-0.6386341","9.749685","none","0"
"323255238112996","3","-0.6621102","-0.65540254","9.7089615","none","0"
"323255258030704","3","-0.6597147","-0.6458206","9.742498","none","0"
"323255277948621","3","-0.65492374","-0.6338432","9.737708","none","0"
"323255297856069","3","-0.6621102","-0.6482161","9.7353115","none","0"
"323255317774037","3","-0.66450566","-0.65300703","9.742498","none","0"
"323255337689767","3","-0.66450566","-0.6386341","9.7353115","none","0"
"323255357607735","3","-0.65492374","-0.65300703","9.737708","none","0"
"323255377508881","3","-0.6621102","-0.6362387","9.737708","none","0"
"323255397426850","3","-0.67887855","-0.6338432","9.759267","none","0"
"323255417361225","3","-0.6525283","-0.6482161","9.720939","none","0"
"323255437279142","3","-0.68127406","-0.6506115","9.7089615","none","0"
"323255457183360","3","-0.6453419","-0.6410296","9.742498","none","0"
"323255477101277","3","-0.65492374","-0.65779805","9.732917","none","0"
"323255497024662","3","-0.6621102","-0.6410296","9.732917","none","0"
"323255516942631","3","-0.67648304","-0.6362387","9.730521","none","0"
"323255536868152","3","-0.6692966","-0.6506115","9.75208","none","0"
"323255556786069","3","-0.6692966","-0.65540254","9.711357","none","0"
"323255576704089","3","-0.6669012","-0.6434251","9.72573","none","0"
"323255596622058","3","-0.65492374","-0.6506115","9.75208","none","0"
"323255616551798","3","-0.6621102","-0.6290523","9.742498","none","0"
"323255636469975","3","-0.6740876","-0.6506115","9.732917","none","0"
"323255656365860","3","-0.67648304","-0.6458206","9.759267","none","0"
"323255676284037","3","-0.6621102","-0.6482161","9.730521","none","0"
"323255696197423","3","-0.67169213","-0.6482161","9.737708","none","0"
"323255716115600","3","-0.65492374","-0.6410296","9.749685","none","0"
"323255736015496","3","-0.6836695","-0.65540254","9.754476","none","0"
"323255755933673","3","-0.65731925","-0.65540254","9.742498","none","0"
"323255775884454","3","-0.6692966","-0.6506115","9.730521","none","0"
"323255795802631","3","-0.64294636","-0.65300703","9.742498","none","0"
"323255815705756","3","-0.6525283","-0.6362387","9.7353115","none","0"
"323255835623933","3","-0.6740876","-0.6410296","9.742498","none","0"
"323255855539142","3","-0.6692966","-0.6506115","9.732917","none","0"
"323255875457319","3","-0.65731925","-0.6386341","9.716147","none","0"
"323255895381329","3","-0.6501328","-0.6386341","9.72573","none","0"
"323255915299506","3","-0.68127406","-0.6482161","9.749685","none","0"
"323255935214610","3","-0.6597147","-0.6410296","9.742498","none","0"
"323255955132787","3","-0.6669012","-0.65779805","9.728126","none","0"
"323255975049975","3","-0.6740876","-0.6362387","9.740103","none","0"
"323255994968152","3","-0.6669012","-0.6386341","9.75208","none","0"
"323256014892527","3","-0.6621102","-0.6434251","9.730521","none","0"
"323256034810704","3","-0.6597147","-0.6410296","9.7353115","none","0"
"323256054727319","3","-0.6692966","-0.6482161","9.737708","none","0"
"323256074645496","3","-0.6740876","-0.6434251","9.728126","none","0"
"323256094561433","3","-0.6597147","-0.6506115","9.732917","none","0"
"323256114479610","3","-0.66450566","-0.6482161","9.7353115","none","0"
"323256134401694","3","-0.6621102","-0.6434251","9.728126","none","0"
"323256154319871","3","-0.6621102","-0.6434251","9.737708","none","0"
"323256174255339","3","-0.6669012","-0.6386341","9.737708","none","0"
"323256194173517","3","-0.6621102","-0.6482161","9.730521","none","0"
"323256214062735","3","-0.65492374","-0.6458206","9.728126","none","0"
"323256233980912","3","-0.6525283","-0.6434251","9.749685","none","0"
"323256253911069","3","-0.6669012","-0.6410296","9.749685","none","0"
"323256273829246","3","-0.64294636","-0.6314477","9.730521","none","0"
"323256293753673","3","-0.6597147","-0.65300703","9.718544","none","0"
"323256313671850","3","-0.6525283","-0.6434251","9.728126","none","0"
"323256333574350","3","-0.66450566","-0.6434251","9.740103","none","0"
"323256353492527","3","-0.67169213","-0.6506115","9.742498","none","0"
"323256373441746","3","-0.67648304","-0.6434251","9.744894","none","0"
"323256393359923","3","-0.6692966","-0.65540254","9.75208","none","0"
"323256413265756","3","-0.6525283","-0.6458206","9.742498","none","0"
"323256433183933","3","-0.6597147","-0.65540254","9.737708","none","0"
"323256453110496","3","-0.66450566","-0.6506115","9.749685","none","0"
"323256473028673","3","-0.6740876","-0.6482161","9.730521","none","0"
"323256492936017","3","-0.66450566","-0.6482161","9.728126","none","0"
"323256512854194","3","-0.64294636","-0.6458206","9.72573","none","0"
"323256532775183","3","-0.6501328","-0.6410296","9.72573","none","0"
"323256552693360","3","-0.6621102","-0.6458206","9.718544","none","0"
"323256572618673","3","-0.67169213","-0.6290523","9.737708","none","0"
"323256592536850","3","-0.6692966","-0.65779805","9.744894","none","0"
"323256612454923","3","-0.66450566","-0.6434251","9.711357","none","0"
"323256632373100","3","-0.6477373","-0.6386341","9.723335","none","0"
"323256652301694","3","-0.6525283","-0.6362387","9.7353115","none","0"
"323256672219871","3","-0.65731925","-0.65300703","9.72573","none","0"
"323256692128673","3","-0.6908559","-0.6506115","9.737708","none","0"
"323256712046850","3","-0.68606496","-0.65540254","9.723335","none","0"
"323256731963673","3","-0.65731925","-0.65540254","9.7353115","none","0"
"323256751881850","3","-0.6669012","-0.65540254","9.737708","none","0"
"323256771807423","3","-0.66450566","-0.6386341","9.732917","none","0"
"323256791725600","3","-0.6669012","-0.65779805","9.716147","none","0"
"323256811643204","3","-0.66450566","-0.65779805","9.711357","none","0"
"323256831561381","3","-0.66450566","-0.6482161","9.728126","none","0"
"323256851483048","3","-0.6597147","-0.6410296","9.7353115","none","0"
"323256871401225","3","-0.65731925","-0.66019344","9.754476","none","0"
"323256891321642","3","-0.6621102","-0.6482161","9.728126","none","0"
"323256911239819","3","-0.6669012","-0.6434251","9.737708","none","0"
"323256931164558","3","-0.67887855","-0.6434251","9.7353115","none","0"
"323256951082735","3","-0.6621102","-0.6410296","9.732917","none","0"
"323256971013881","3","-0.6669012","-0.65540254","9.723335","none","0"
"323256990932058","3","-0.6621102","-0.65300703","9.723335","none","0"
"323257010851485","3","-0.6692966","-0.6290523","9.728126","none","0"
"323257030769662","3","-0.6621102","-0.6410296","9.744894","none","0"
"323257050683048","3","-0.67169213","-0.6458206","9.74729","none","0"
"323257070601225","3","-0.6740876","-0.6410296","9.742498","none","0"
"323257090528204","3","-0.67169213","-0.6386341","9.730521","none","0"
"323257110446381","3","-0.6597147","-0.6314477","9.730521","none","0"
"323257130362267","3","-0.6597147","-0.6458206","9.718544","none","0"
"323257150280444","3","-0.6525283","-0.6506115","9.711357","none","0"
"323257170188204","3","-0.6836695","-0.6458206","9.732917","none","0"
"323257190106381","3","-0.70043784","-0.6050974","9.797595","none","0"
"323257210041433","3","-0.64294636","-0.6338432","9.756871","none","0"
"323257229959610","3","-0.6669012","-0.6769619","9.663447","none","0"
"323257249870392","3","-0.6453419","-0.65540254","9.7353115","none","0"
"323257269788569","3","-0.67887855","-0.6266568","9.7880125","none","0"
"323257289711902","3","-0.6908559","-0.6482161","9.780826","none","0"
"323257309630079","3","-0.69325143","-0.6482161","9.737708","none","0"
"323257329557944","3","-0.6836695","-0.6338432","9.759267","none","0"
"323257349476121","3","-0.6597147","-0.6506115","9.732917","none","0"
"323257369411694","3","-0.6381554","-0.6458206","9.677821","none","0"
"323257389329871","3","-0.6501328","-0.61947036","9.742498","none","0"
"323257409228048","3","-0.6908559","-0.6434251","9.77364","none","0"
"323257429146225","3","-0.68846047","-0.66498446","9.74729","none","0"
"323257449073829","3","-0.6692966","-0.6482161","9.740103","none","0"
"323257468992006","3","-0.6453419","-0.6410296","9.74729","none","0"
"323257488912214","3","-0.6453419","-0.6482161","9.742498","none","0"
"323257508830392","3","-0.67169213","-0.6434251","9.718544","none","0"
"323257528732527","3","-0.68127406","-0.6338432","9.761662","none","0"
"323257548650704","3","-0.67169213","-0.65300703","9.749685","none","0"
"323257568590964","3","-0.6597147","-0.6338432","9.716147","none","0"
"323257588509142","3","-0.6381554","-0.6290523","9.728126","none","0"
"323257608430912","3","-0.6501328","-0.6434251","9.7353115","none","0"
"323257628349089","3","-0.6740876","-0.6482161","9.7089615","none","0"
"323257648291798","3","-0.67169213","-0.6338432","9.728126","none","0"
"323257668209975","3","-0.6525283","-0.6434251","9.72573","none","0"
"323257688113048","3","-0.6453419","-0.6458206","9.704171","none","0"
"323257708031485","3","-0.6525283","-0.6290523","9.720939","none","0"
"323257727952475","3","-0.6477373","-0.6386341","9.728126","none","0"
"323257747870912","3","-0.67887855","-0.6458206","9.749685","none","0"
"323257767790808","3","-0.6477373","-0.6338432","9.742498","none","0"
"323257787709246","3","-0.6597147","-0.6362387","9.713753","none","0"
"323257807628933","3","-0.6453419","-0.65300703","9.720939","none","0"
"323257827547371","3","-0.6621102","-0.6434251","9.723335","none","0"
"323257847472423","3","-0.67648304","-0.6266568","9.723335","none","0"
"323257867390860","3","-0.67169213","-0.6386341","9.768848","none","0"
"323257887317839","3","-0.68606496","-0.6362387","9.75208","none","0"
"323257907236277","3","-0.6501328","-0.6458206","9.728126","none","0"
"323257927151902","3","-0.65492374","-0.6506115","9.720939","none","0"
"323257947070339","3","-0.64294636","-0.66019344","9.742498","none","0"
"323257967010704","3","-0.67648304","-0.6458206","9.74729","none","0"
"323257986929142","3","-0.68606496","-0.62426126","9.74729","none","0"
"323258006840548","3","-0.6740876","-0.6410296","9.737708","none","0"
"323258026758985","3","-0.6597147","-0.6410296","9.716147","none","0"
"323258046680027","3","-0.6621102","-0.6434251","9.711357","none","0"
"323258066598464","3","-0.6669012","-0.6266568","9.728126","none","0"
"323258086523621","3","-0.68127406","-0.6290523","9.737708","none","0"
"323258106442058","3","-0.6740876","-0.6506115","9.732917","none","0"
"323258126354923","3","-0.6453419","-0.6410296","9.716147","none","0"
"323258146273360","3","-0.6597147","-0.6362387","9.732917","none","0"
"323258166199454","3","-0.65731925","-0.6482161","9.728126","none","0"
"323258186117892","3","-0.66450566","-0.6482161","9.740103","none","0"
"323258206026589","3","-0.6836695","-0.6482161","9.740103","none","0"
"323258225945027","3","-0.67887855","-0.6410296","9.7353115","none","0"
"323258245866850","3","-0.65492374","-0.6506115","9.737708","none","0"
"323258265785287","3","-0.6405509","-0.6482161","9.730521","none","0"
"323258285706485","3","-0.6525283","-0.6410296","9.740103","none","0"
"323258305624923","3","-0.67648304","-0.6506115","9.75208","none","0"
"323258325537527","3","-0.67887855","-0.66498446","9.723335","none","0"
"323258345455964","3","-0.6621102","-0.6386341","9.732917","none","0"
"323258365393777","3","-0.64294636","-0.6338432","9.759267","none","0"
"323258385312214","3","-0.6477373","-0.6362387","9.742498","none","0"
"323258405234298","3","-0.6669012","-0.6362387","9.723335","none","0"
"323258425152735","3","-0.68127406","-0.6506115","9.720939","none","0"
"323258445061433","3","-0.67169213","-0.6482161","9.730521","none","0"
"323258464979871","3","-0.6597147","-0.6338432","9.754476","none","0"
"323258484897423","3","-0.6669012","-0.6434251","9.74729","none","0"
"323258504815860","3","-0.6740876","-0.65779805","9.737708","none","0"
"323258524759194","3","-0.65492374","-0.65300703","9.7089615","none","0"
"323258544677631","3","-0.6597147","-0.65779805","9.69938","none","0"
"323258564578308","3","-0.6597147","-0.65779805","9.72573","none","0"
"323258584496746","3","-0.66450566","-0.6386341","9.771244","sit down","0"
"323258604435392","3","-0.67648304","-0.6290523","9.749685","sit down","0"
"323258624353829","3","-0.67648304","-0.6290523","9.728126","sit down","0"
"323258644269454","3","-0.6453419","-0.6386341","9.730521","sit down","0"
"323258664187892","3","-0.64294636","-0.65300703","9.718544","sit down","0"
"323258684084767","3","-0.6405509","-0.6338432","9.7089615","sit down","0"
"323258704003204","3","-0.6669012","-0.6458206","9.737708","sit down","0"
"323258723939662","3","-0.6669012","-0.6458206","9.7353115","sit down","0"
"323258743858412","3","-0.6621102","-0.65300703","9.756871","sit down","0"
"323258763774246","3","-0.6525283","-0.65779805","9.723335","sit down","0"
"323258783692944","3","-0.6621102","-0.6506115","9.720939","sit down","0"
"323258803600079","3","-0.65731925","-0.6386341","9.716147","sit down","0"
"323258823518777","3","-0.67648304","-0.6458206","9.732917","sit down","0"
"323258843461017","3","-0.67648304","-0.6482161","9.740103","sit down","0"
"323258863379767","3","-0.6740876","-0.6410296","9.7353115","sit down","0"
"323258883307839","3","-0.6477373","-0.6410296","9.730521","sit down","0"
"323258903226537","3","-0.64294636","-0.65540254","9.706566","sit down","0"
"323258923152527","3","-0.65731925","-0.66019344","9.718544","sit down","0"
"323258943071277","3","-0.67887855","-0.6434251","9.742498","sit down","0"
"323258962987527","3","-0.6836695","-0.6458206","9.740103","sit down","0"
"323258982906277","3","-0.6501328","-0.6434251","9.744894","sit down","0"
"323259002792319","3","-0.6405509","-0.6434251","9.7353115","sit down","0"
"323259022711017","3","-0.64294636","-0.6386341","9.742498","sit down","0"
"323259042666537","3","-0.65492374","-0.6434251","9.732917","sit down","0"
"323259062585287","3","-0.6740876","-0.65300703","9.720939","sit down","0"
"323259082490027","3","-0.67648304","-0.6362387","9.754476","sit down","0"
"323259102408777","3","-0.6597147","-0.6386341","9.744894","sit down","0"
"323259122305496","3","-0.6525283","-0.65540254","9.718544","sit down","0"
"323259142224194","3","-0.6477373","-0.6410296","9.732917","sit down","0"
"323259162157683","3","-0.6621102","-0.6482161","9.737708","sit down","0"
"323259182076433","3","-0.6669012","-0.6410296","9.740103","sit down","0"
"323259202015548","3","-0.6621102","-0.6266568","9.730521","sit down","0"
"323259221934246","3","-0.65492374","-0.6458206","9.7353115","sit down","0"
"323259241860392","3","-0.64294636","-0.65779805","9.737708","sit down","0"
"323259261779142","3","-0.6501328","-0.66019344","9.732917","sit down","0"
"323259281665548","3","-0.65731925","-0.65300703","9.718544","sit down","0"
"323259301584246","3","-0.6836695","-0.6290523","9.756871","sit down","0"
"323259321529454","3","-0.67648304","-0.6338432","9.77364","sit down","0"
"323259341448152","3","-0.6285735","-0.6482161","9.685007","sit down","0"
"323259361361329","3","-0.65492374","-0.6458206","9.67303","sit down","0"
"323259381280027","3","-0.65731925","-0.6386341","9.728126","sit down","0"
"323259401187527","3","-0.68606496","-0.6386341","9.768848","sit down","0"
"323259421106225","3","-0.68846047","-0.65540254","9.713753","sit down","0"
"323259441055183","3","-0.68606496","-0.6482161","9.749685","sit down","0"
"323259460973933","3","-0.68127406","-0.6410296","9.756871","sit down","0"
"323259480864662","3","-0.65731925","-0.65779805","9.706566","sit down","0"
"323259500783360","3","-0.66450566","-0.6386341","9.704171","sit down","0"
"323259520702162","3","-0.6453419","-0.6458206","9.749685","sit down","0"
"323259540620860","3","-0.7124152","-0.65779805","9.771244","sit down","0"
"323259560575027","3","-0.68846047","-0.65540254","9.723335","sit down","0"
"323259580493777","3","-0.6501328","-0.6314477","9.7089615","sit down","0"
"323259600383152","3","-0.6381554","-0.65779805","9.728126","sit down","0"
"323259620301850","3","-0.58785033","-0.6482161","9.740103","sit down","0"
"323259640225860","3","-0.7196017","-0.6338432","9.754476","sit down","0"
"323259660144558","3","-0.6621102","-0.65540254","9.732917","sit down","0"
"323259680086329","3","-0.63575995","-0.66498446","9.663447","sit down","0"
"323259700005027","3","-0.6501328","-0.6362387","9.740103","sit down","0"
"323259719910808","3","-0.7124152","-0.6410296","9.780826","sit down","0"
"323259739829506","3","-0.67887855","-0.6506115","9.682611","sit down","0"
"323259759753621","3","-0.6405509","-0.6386341","9.680216","sit down","0"
"323259779672527","3","-0.66450566","-0.62426126","9.778431","sit down","0"
"323259799602319","3","-0.66450566","-0.65779805","9.7353115","sit down","0"
"323259819521225","3","-0.68127406","-0.6745664","9.692194","sit down","0"
"323259839464506","3","-0.65492374","-0.6410296","9.687403","sit down","0"
"323259859383412","3","-0.6381554","-0.6290523","9.69938","sit down","0"
"323259879303881","3","-0.68127406","-0.6410296","9.72573","sit down","0"
"323259899222787","3","-0.68846047","-0.6410296","9.711357","sit down","0"
"323259919142475","3","-0.7076243","-0.6362387","9.680216","sit down","0"
"323259939061381","3","-0.69325143","-0.6410296","9.668239","sit down","0"
"323259958956225","3","-0.7339746","-0.6482161","9.653866","sit down","0"
"323259978875131","3","-0.7196017","-0.6362387","9.661052","sit down","0"
"323259998826433","3","-0.69325143","-0.61947036","9.694589","sit down","0"
"323260018745339","3","-0.6165961","-0.6386341","9.696984","sit down","0"
"323260038666069","3","-0.5351498","-0.6889392","9.790408","sit down","0"
"323260058584975","3","-0.63336444","-0.6434251","9.627516","sit down","0"
"323260078508673","3","-0.57587296","-0.62186587","9.634702","sit down","0"
"323260098427579","3","-0.49682218","-0.65779805","9.886227","sit down","0"
"323260118348308","3","-0.5064041","-0.65300703","9.907787","sit down","0"
"323260138267214","3","-0.5591046","-0.74643064","9.809572","sit down","0"
"323260158189610","3","-0.5519182","-0.6314477","9.60356","sit down","0"
"323260178108517","3","-0.5064041","-0.65779805","9.514928","sit down","0"
"323260198028985","3","-0.92321736","-0.69852114","9.553256","sit down","0"
"323260217947892","3","-1.1412059","-0.61947036","9.584397","sit down","0"
"323260237871746","3","-1.0190365","-0.6961256","9.756871","sit down","0"
"323260257790652","3","-0.8729123","-0.8039222","9.912578","sit down","0"
"323260277704037","3","-1.1819291","-0.74163973","9.876645","sit down","0"
"323260297622839","3","-1.2394205","-0.717685","9.778431","sit down","0"
"323260317545287","3","-1.0789235","-0.7128941","9.852691","sit down","0"
"323260337464194","3","-1.0142455","-0.7296624","9.838318","sit down","0"
"323260357388829","3","-0.9926863","-0.7248714","9.79999","sit down","0"
"323260377307735","3","-0.99508166","-0.7152896","9.730521","sit down","0"
"323260397222058","3","-0.9735224","-0.7200804","9.613143","sit down","0"
"323260417140964","3","-0.9327993","-0.7272669","9.641888","sit down","0"
"323260437074610","3","-0.92321736","-0.7224759","9.687403","sit down","0"
"323260456993517","3","-0.8824942","-0.7152896","9.718544","sit down","0"
"323260476898777","3","-0.84895754","-0.7296624","9.720939","sit down","0"
"323260496817579","3","-0.8393756","-0.7272669","9.675425","sit down","0"
"323260516749975","3","-0.8681213","-0.7104986","9.687403","sit down","0"
"323260536668881","3","-0.87051684","-0.7224759","9.677821","sit down","0"
"323260556585235","3","-0.8729123","-0.7128941","9.694589","sit down","0"
"323260576504037","3","-0.93519473","-0.6817528","9.716147","sit down","0"
"323260596399975","3","-0.94238114","-0.69852114","9.728126","sit down","0"
"323260616318881","3","-0.95914954","-0.70331216","9.742498","sit down","0"
"323260636242787","3","-0.9567541","-0.7296624","9.740103","sit down","0"
"323260656161694","3","-0.93519473","-0.70091665","9.72573","sit down","0"
"323260676113048","3","-0.9399857","-0.6961256","9.653866","sit down","0"
"323260696031954","3","-0.98310435","-0.70810306","9.661052","sit down","0"
"323260715921225","3","-1.0429913","-0.70331216","9.728126","sit down","0"
"323260735840131","3","-1.0621551","-0.70570755","9.761662","sit down","0"
"323260755758517","3","-1.1220421","-0.7152896","9.74729","sit down","0"
"323260775677423","3","-1.1076692","-0.7272669","9.67303","sit down","0"
"323260795594454","3","-1.076528","-0.7560127","9.740103","sit down","0"
"323260815513360","3","-1.076528","-0.7224759","9.771244","sit down","0"
"323260835434454","3","-1.0980873","-0.6817528","9.730521","sit down","0"
"323260855353360","3","-1.1292286","-0.6961256","9.744894","sit down","0"
"323260875273569","3","-1.131624","-0.6937301","9.795198","sit down","0"
"323260895192475","3","-1.071737","-0.70810306","9.802386","sit down","0"
"323260915131069","3","-1.026223","-0.7128941","9.701775","sit down","0"
"323260935049975","3","-1.0094546","-0.6961256","9.639493","sit down","0"
"323260954944975","3","-1.0022681","-0.6961256","9.65147","sit down","0"
"323260974863881","3","-1.0238274","-0.70570755","9.682611","sit down","0"
"323260994808048","3","-1.0429913","-0.6961256","9.6562605","sit down","0"
"323261014726954","3","-1.0142455","-0.7224759","9.685007","sit down","0"
"323261034656850","3","-1.0286185","-0.7296624","9.701775","sit down","0"
"323261054575756","3","-1.0094546","-0.7128941","9.687403","sit down","0"
"323261074463517","3","-0.99029076","-0.7224759","9.682611","sit down","0"
"323261094382423","3","-0.9783133","-0.73684883","9.692194","sit down","0"
"323261114330548","3","-0.9926863","-0.7200804","9.663447","sit down","0"
"323261134249454","3","-1.0286185","-0.717685","9.701775","sit down","0"
"323261154168048","3","-1.0334094","-0.74163973","9.723335","sit down","0"
"323261174086954","3","-1.016641","-0.7296624","9.744894","sit down","0"
"323261193985131","3","-1.0070591","-0.7104986","9.7089615","sit down","0"
"323261213904037","3","-1.0238274","-0.70810306","9.69938","sit down","0"
"323261233823308","3","-1.0358049","-0.7200804","9.744894","sit down","0"
"323261253742214","3","-1.0382004","-0.70570755","9.718544","sit down","0"
"323261273692631","3","-1.026223","-0.70570755","9.718544","sit down","0"
"323261293611537","3","-1.016641","-0.70331216","9.711357","sit down","0"
"323261313535704","3","-1.0214319","-0.7104986","9.696984","sit down","0"
"323261333454767","3","-1.0334094","-0.717685","9.732917","sit down","0"
"323261353335496","3","-1.0334094","-0.70331216","9.728126","sit down","0"
"323261373254558","3","-1.0214319","-0.70331216","9.680216","sit down","0"
"323261393204767","3","-1.0070591","-0.7152896","9.696984","sit down","0"
"323261413123829","3","-0.98310435","-0.7152896","9.69938","sit down","0"
"323261433009454","3","-1.0142455","-0.70810306","9.696984","sit down","0"
"323261452928517","3","-1.0214319","-0.70331216","9.694589","sit down","0"
"323261472879194","3","-1.0118501","-0.69852114","9.713753","sit down","0"
"323261492798256","3","-1.0046636","-0.70331216","9.704171","sit down","0"
"323261512685652","3","-1.0118501","-0.7272669","9.69938","sit down","0"
"323261532604714","3","-1.0214319","-0.717685","9.701775","sit down","0"
"323261552551694","3","-1.0190365","-0.70810306","9.69938","sit down","0"
"323261572443621","3","-1.0190365","-0.717685","9.696984","sit down","0"
"323261592369871","3","-1.0142455","-0.70570755","9.69938","sit down","0"
"323261612288933","3","-1.0190365","-0.7128941","9.728126","sit down","0"
"323261632225860","3","-1.0070591","-0.70331216","9.718544","sit down","0"
"323261652144923","3","-0.9998727","-0.6961256","9.682611","sit down","0"
"323261672068517","3","-1.0286185","-0.70810306","9.723335","sit down","0"
"323261691987579","3","-1.0238274","-0.70810306","9.711357","sit down","0"
"323261711903725","3","-1.0358049","-0.70570755","9.7089615","sit down","0"
"323261731822787","3","-1.0334094","-0.7152896","9.732917","sit down","0"
"323261751741017","3","-1.0238274","-0.7152896","9.7089615","sit down","0"
"323261771660079","3","-1.0118501","-0.7128941","9.69938","sit down","0"
"323261791577267","3","-1.0334094","-0.70570755","9.7089615","sit down","0"
"323261811496329","3","-1.0142455","-0.70570755","9.72573","sit down","0"
"323261831419298","3","-1.0094546","-0.7128941","9.728126","sit down","0"
"323261851338360","3","-1.016641","-0.70810306","9.675425","sit down","0"
"323261871244714","3","-1.0334094","-0.70331216","9.716147","sit down","0"
"323261891163777","3","-1.0214319","-0.7104986","9.706566","sit down","0"
"323261911082996","3","-1.0118501","-0.7128941","9.682611","sit down","0"
"323261931002058","3","-1.016641","-0.70331216","9.704171","sit down","0"
"323261950922267","3","-1.0286185","-0.7224759","9.711357","sit down","0"
"323261970841329","3","-1.0118501","-0.7200804","9.701775","sit down","0"
"323261990757787","3","-1.016641","-0.70570755","9.69938","sit down","0"
"323262010676850","3","-1.0118501","-0.6937301","9.692194","sit down","0"
"323262030565496","3","-1.0214319","-0.7152896","9.704171","sit down","0"
"323262050484558","3","-1.0382004","-0.70331216","9.701775","sit down","0"
"323262070436746","3","-1.0238274","-0.69852114","9.711357","sit down","0"
"323262090355808","3","-1.0214319","-0.7104986","9.720939","sit down","0"
"323262110276017","3","-1.0214319","-0.7128941","9.696984","sit down","0"
"323262130195079","3","-1.0214319","-0.70570755","9.677821","sit down","0"
"323262150113360","3","-1.0358049","-0.70091665","9.728126","sit down","0"
"323262170032423","3","-1.0238274","-0.7200804","9.723335","sit down","0"
"323262189926069","3","-1.0190365","-0.717685","9.732917","sit down","0"
"323262209845131","3","-1.031014","-0.7104986","9.718544","sit down","0"
"323262229766225","3","-1.0142455","-0.7200804","9.723335","sit down","0"
"323262249685287","3","-1.0142455","-0.73684883","9.718544","sit down","0"
"323262269604975","3","-1.0286185","-0.717685","9.72573","sit down","0"
"323262289524037","3","-1.031014","-0.70810306","9.716147","sit down","0"
"323262309447527","3","-1.0238274","-0.7104986","9.69938","sit down","0"
"323262329366589","3","-1.031014","-0.70331216","9.706566","sit down","0"
"323262349294402","3","-1.0238274","-0.70570755","9.696984","sit down","0"
"323262369213464","3","-1.0238274","-0.7104986","9.701775","sit down","0"
"323262389132892","3","-1.0070591","-0.7200804","9.701775","sit down","0"
"323262409051954","3","-1.0094546","-0.7128941","9.706566","sit down","0"
"323262428978517","3","-1.0046636","-0.70331216","9.69938","sit down","0"
"323262448897579","3","-1.0046636","-0.7128941","9.69938","sit down","0"
"323262468821537","3","-0.9998727","-0.7248714","9.706566","sit down","0"
"323262488740600","3","-1.0190365","-0.7128941","9.720939","sit down","0"
"323262508652527","3","-1.031014","-0.70570755","9.718544","sit down","0"
"323262528571589","3","-1.0477822","-0.70810306","9.696984","sit down","0"
"323262548494819","3","-1.0453868","-0.70810306","9.692194","sit down","0"
"323262568413881","3","-1.0286185","-0.70810306","9.718544","lay down","0"
"323262588320756","3","-1.0358049","-0.7224759","9.718544","lay down","0"
"323262608239819","3","-1.0238274","-0.717685","9.716147","lay down","0"
"323262628193048","3","-1.0358049","-0.7128941","9.718544","lay down","0"
"323262648112214","3","-1.026223","-0.7152896","9.7089615","lay down","0"
"323262668000235","3","-1.0238274","-0.7104986","9.723335","lay down","0"
"323262687919402","3","-0.9998727","-0.70570755","9.711357","lay down","0"
"323262707838360","3","-1.0046636","-0.7104986","9.682611","lay down","0"
"323262727757527","3","-1.0358049","-0.7128941","9.718544","lay down","0"
"323262747696225","3","-1.0190365","-0.7224759","9.720939","lay down","0"
"323262767615392","3","-1.0142455","-0.7104986","9.663447","lay down","0"
"323262787508673","3","-1.0190365","-0.7128941","9.692194","lay down","0"
"323262807427839","3","-1.0286185","-0.7152896","9.704171","lay down","0"
"323262827346381","3","-1.0334094","-0.70810306","9.701775","lay down","0"
"323262847265548","3","-1.0238274","-0.7128941","9.711357","lay down","0"
"323262867204298","3","-1.0238274","-0.7248714","9.713753","lay down","0"
"323262887123464","3","-1.0070591","-0.74403524","9.701775","lay down","0"
"323262907019871","3","-1.0358049","-0.7200804","9.706566","lay down","0"
"323262926939037","3","-1.0621551","-0.7104986","9.637098","lay down","0"
"323262946859089","3","-1.0334094","-0.73924434","9.7880125","lay down","0"
"323262966778256","3","-1.0022681","-0.69852114","9.749685","lay down","0"
"323262986731694","3","-0.9854998","-0.66977537","9.610746","lay down","0"
"323263006650860","3","-1.0382004","-0.69852114","9.682611","lay down","0"
"323263026537162","3","-1.0789235","-0.73684883","9.737708","lay down","0"
"323263046456329","3","-1.0549687","-0.7320578","9.792804","lay down","0"
"323263066407319","3","-1.0382004","-0.70570755","9.797595","lay down","0"
"323263086326485","3","-1.0429913","-0.69852114","9.69938","lay down","0"
"323263106237214","3","-1.0286185","-0.70331216","9.670634","lay down","0"
"323263126156381","3","-1.0094546","-0.7224759","9.720939","lay down","0"
"323263146043673","3","-1.016641","-0.717685","9.7353115","lay down","0"
"323263165962839","3","-1.0334094","-0.772781","9.704171","lay down","0"
"323263185880339","3","-1.0501777","-0.76799","9.649075","lay down","0"
"323263205799506","3","-1.0022681","-0.6937301","9.689797","lay down","0"
"323263225750912","3","-0.9759179","-0.6506115","9.766453","lay down","0"
"323263245670079","3","-0.91363543","-0.66019344","9.756871","lay down","0"
"323263265560496","3","-0.96633595","-0.6913347","9.526905","lay down","0"
"323263285479662","3","-1.0693415","-0.717685","9.505346","lay down","0"
"323263305396642","3","-1.1076692","-0.70331216","9.768848","lay down","0"
"323263325315808","3","-1.066946","-0.66737986","9.802386","lay down","0"
"323263345257892","3","-1.0190365","-0.6410296","9.615538","lay down","0"
"323263365177058","3","-0.91363543","-0.6362387","9.704171","lay down","0"
"323263385108152","3","-0.96633595","-0.6362387","9.816758","lay down","0"
"323263405027319","3","-0.99029076","-0.66977537","9.759267","lay down","0"
"323263424907058","3","-1.026223","-0.75361717","9.701775","lay down","0"
"323263444826225","3","-1.0549687","-0.75361717","9.694589","lay down","0"
"323263464775496","3","-1.0070591","-0.60988843","9.795198","lay down","0"
"323263484694662","3","-1.0525732","-0.5859337","9.658657","lay down","0"
"323263504575652","3","-1.1723471","-0.61707485","9.534092","lay down","0"
"323263524494819","3","-1.3496125","-0.6338432","9.6562605","lay down","0"
"323263544444037","3","-1.2298386","-0.66977537","9.883832","lay down","0"
"323263564341694","3","-1.0525732","-0.65540254","9.955696","lay down","0"
"323263584260860","3","-0.81062984","-0.61947036","9.79999","lay down","0"
"323263604190964","3","-0.78188413","-0.6769619","9.689797","lay down","0"
"323263624110131","3","-0.8824942","-0.7655945","9.728126","lay down","0"
"323263644022631","3","-1.0645506","-0.7775719","9.934136","lay down","0"
"323263663941798","3","-1.3544035","-0.74163973","9.984442","lay down","0"
"323263683857319","3","-1.3280532","-0.70331216","9.776035","lay down","0"
"323263703776485","3","-1.3424261","-0.6050974","9.538883","lay down","0"
"323263723694506","3","-1.2993075","-0.5523969","9.435877","lay down","0"
"323263743613673","3","-1.1747426","-0.5547924","9.637098","lay down","0"
"323263763532892","3","-1.1483923","-0.5955156","9.730521","lay down","0"
"323263783452058","3","-1.1148556","-0.62186587","9.692194","lay down","0"
"323263803362944","3","-0.7866751","-0.49730095","9.706566","lay down","0"
"323263823282110","3","-0.6070142","-0.43980947","9.72573","lay down","0"
"323263843197839","3","-0.79146606","-0.4996964","9.685007","lay down","0"
"323263863117006","3","-1.0286185","-0.53323317","9.646679","lay down","0"
"323263883033308","3","-1.3232622","-0.54041946","9.62991","lay down","0"
"323263902952475","3","-1.1124601","-0.46855518","9.641888","lay down","0"
"323263922861381","3","-0.6621102","-0.4350185","9.668239","lay down","0"
"323263942780548","3","-0.56868654","-0.40148178","9.507742","lay down","0"
"323263962687423","3","-1.0980873","-0.44699588","9.114882","lay down","0"
"323263982606589","3","-1.862245","-0.5907246","8.916058","lay down","0"
"323264002525808","3","-2.123352","-0.6266568","9.225075","lay down","0"
"323264022444975","3","-1.7903806","-0.61947036","9.811967","lay down","0"
"323264042343464","3","-1.5316689","-0.66498446","9.862272","lay down","0"
"323264062262631","3","-1.572392","-0.79194474","9.617934","lay down","0"
"323264082175652","3","-1.6849796","-0.8638091","9.797595","lay down","0"
"323264102094819","3","-1.5244825","-0.7608036","10.274295","lay down","0"
"323264122025600","3","-1.6107197","-0.8566228","10.403651","lay down","0"
"323264141944767","3","-1.7400756","-0.84464526","10.252735","lay down","0"
"323264161857579","3","-1.6562338","-0.70331216","10.085052","lay down","0"
"323264181776746","3","-1.4885503","-0.57395625","9.9005995","lay down","0"
"323264201713725","3","-1.4885503","-0.60988843","9.644284","lay down","0"
"323264221632892","3","-1.4047086","-0.66258895","9.399945","lay down","0"
"323264241547579","3","-1.246607","-0.5619788","9.411922","lay down","0"
"323264261466746","3","-1.1483923","-0.4541823","9.498159","lay down","0"
"323264281352267","3","-1.1531833","-0.5164647","9.435877","lay down","0"
"323264301271433","3","-1.2442114","-0.6290523","9.160397","lay down","0"
"323264321212267","3","-1.296912","-0.49250993","9.241844","lay down","0"
"323264341131433","3","-1.2849346","-0.49490544","9.644284","lay down","0"
"323264361048308","3","-1.3496125","-0.6434251","9.879041","lay down","0"
"323264380967475","3","-1.3831493","-0.772781","10.010792","lay down","0"
"323264400851954","3","-1.4190814","-0.6506115","9.998815","lay down","0"
"323264420771121","3","-1.7352846","-0.46136877","9.871854","lay down","0"
"323264440686121","3","-1.8670359","-0.6745664","9.637098","lay down","0"
"323264460605287","3","-1.6107197","-0.9835831","9.426295","lay down","0"
"323264480551173","3","-1.5340643","-0.9763967","9.524509","lay down","0"
"323264500470339","3","-1.5149006","-0.73684883","9.69938","lay down","0"
"323264520381589","3","-1.4166859","-0.66258895","9.6562605","lay down","0"
"323264540300756","3","-1.3328443","-0.5571879","9.62991","lay down","0"
"323264560205808","3","-1.306494","-0.61707485","9.620329","lay down","0"
"323264580124975","3","-1.3424261","-0.7344533","9.62991","lay down","0"
"323264600041902","3","-1.2513978","-0.6937301","9.668239","lay down","0"
"323264619960704","3","-1.0549687","-0.6793574","9.728126","lay down","0"
"323264639860652","3","-1.0693415","-0.6458206","9.701775","lay down","0"
"323264659779454","3","-1.2178612","-0.5691652","9.680216","lay down","0"
"323264679695652","3","-1.3112848","-0.6003065","9.811967","lay down","0"
"323264699614454","3","-1.3591944","-0.65540254","9.888623","lay down","0"
"323264719546277","3","-1.3759627","-0.61467934","9.749685","lay down","0"
"323264739465131","3","-1.3807538","-0.56676984","9.495764","lay down","0"
"323264759399350","3","-1.4310589","-0.54281497","9.584397","lay down","0"
"323264779318152","3","-1.3663809","-0.61707485","9.843109","lay down","0"
"323264799200287","3","-1.3112848","-0.6889392","9.838318","lay down","0"
"323264819119089","3","-1.4286633","-0.6506115","9.584397","lay down","0"
"323264839069714","3","-1.4166859","-0.6266568","9.613143","lay down","0"
"323264858988517","3","-1.2490025","-0.65300703","9.795198","lay down","0"
"323264878869037","3","-1.1747426","-0.6506115","9.718544","lay down","0"
"323264898787839","3","-1.306494","-0.57395625","9.637098","lay down","0"
"323264918706954","3","-1.3855448","-0.5188602","9.754476","lay down","0"
"323264938625756","3","-1.3999176","-0.53083766","9.728126","lay down","0"
"323264958559662","3","-1.407104","-0.6362387","9.617934","lay down","0"
"323264978478464","3","-1.411895","-0.66498446","9.613143","lay down","0"
"323264998368100","3","-1.4047086","-0.48771903","9.574815","lay down","0"
"323265018286902","3","-1.6035333","-0.35596767","9.749685","lay down","0"
"323265038224871","3","-1.6706066","-0.6338432","9.879041","lay down","0"
"323265058143725","3","-1.6011379","-0.82787704","9.570024","lay down","0"
"323265078036694","3","-1.4645956","-0.7248714","9.4646225","lay down","0"
"323265097955496","3","-1.301703","-0.6458206","9.730521","lay down","0"
"323265117892058","3","-1.3112848","-0.66737986","9.740103","lay down","0"
"323265137810860","3","-1.2537935","-0.6793574","9.689797","lay down","0"
"323265157724506","3","-1.2537935","-0.7296624","9.706566","lay down","0"
"323265177643308","3","-1.2753527","-0.7128941","9.639493","lay down","0"
"323265197558933","3","-1.2753527","-0.6793574","9.601165","lay down","0"
"323265217477735","3","-1.3160758","-0.6410296","9.637098","lay down","0"
"323265237389558","3","-1.3208668","-0.5907246","9.7089615","lay down","0"
"323265257308360","3","-1.337635","-0.5883291","9.706566","lay down","0"
"323265277219402","3","-1.4094994","-0.6050974","9.692194","lay down","0"
"323265297138204","3","-1.4526181","-0.6266568","9.694589","lay down","0"
"323265317054246","3","-1.4334543","-0.6003065","9.694589","lay down","0"
"323265336973048","3","-1.4382453","-0.6003065","9.780826","lay down","0"
"323265356885756","3","-1.4310589","-0.6314477","9.7880125","lay down","0"
"323265376804558","3","-1.4262679","-0.66498446","9.728126","lay down","0"
"323265396720860","3","-1.4166859","-0.6721709","9.706566","lay down","0"
"323265416639662","3","-1.4190814","-0.6458206","9.677821","lay down","0"
"323265436555027","3","-1.4047086","-0.62426126","9.658657","lay down","0"
"323265456473829","3","-1.3639854","-0.6410296","9.661052","lay down","0"
"323265476388725","3","-1.3663809","-0.6362387","9.62991","lay down","0"
"323265496307527","3","-1.371172","-0.61467934","9.593979","lay down","0"
"323265516218100","3","-1.3759627","-0.5955156","9.620329","lay down","0"
"323265536136902","3","-1.3663809","-0.597911","9.653866","lay down","0"
"323265556023048","3","-1.3663809","-0.62426126","9.649075","lay down","0"
"323265575941902","3","-1.3735673","-0.6266568","9.661052","lay down","0"
"323265595852579","3","-1.3807538","-0.6338432","9.682611","lay down","0"
"323265615771381","3","-1.3807538","-0.6458206","9.687403","lay down","0"
"323265635714923","3","-1.3951266","-0.6482161","9.706566","lay down","0"
"323265655633308","3","-1.3783584","-0.6386341","9.701775","lay down","0"
"323265675512787","3","-1.3855448","-0.65540254","9.706566","lay down","0"
"323265695431173","3","-1.402313","-0.65300703","9.713753","lay down","0"
"323265715343725","3","-1.4142904","-0.6362387","9.704171","lay down","0"
"323265735262110","3","-1.3951266","-0.6386341","9.685007","lay down","0"
"323265755195444","3","-1.4047086","-0.61467934","9.685007","lay down","0"
"323265775113829","3","-1.3999176","-0.6050974","9.692194","lay down","0"
"323265795046017","3","-1.3975221","-0.6122838","9.677821","lay down","0"
"323265814964402","3","-1.3879402","-0.61947036","9.661052","lay down","0"
"323265834878048","3","-1.3783584","-0.61947036","9.6562605","lay down","0"
"323265854796433","3","-1.3879402","-0.6458206","9.658657","lay down","0"
"323265874698569","3","-1.3951266","-0.65779805","9.641888","lay down","0"
"323265894616954","3","-1.3831493","-0.6434251","9.668239","lay down","0"
"323265914499089","3","-1.3951266","-0.6434251","9.682611","lay down","0"
"323265934417475","3","-1.3903357","-0.6290523","9.67303","lay down","0"
"323265954332423","3","-1.3903357","-0.62186587","9.689797","lay down","0"
"323265974250808","3","-1.3927312","-0.6314477","9.685007","lay down","0"
"323265994184454","3","-1.4166859","-0.6482161","9.663447","lay down","0"
"323266014102839","3","-1.4094994","-0.6338432","9.692194","lay down","0"
"323266033992735","3","-1.3831493","-0.6074929","9.69938","lay down","0"
"323266053911121","3","-1.3927312","-0.62186587","9.706566","lay down","0"
"323266073826277","3","-1.3951266","-0.6362387","9.696984","lay down","0"
"323266093744662","3","-1.402313","-0.6386341","9.685007","lay down","0"
"323266113666433","3","-1.3879402","-0.6314477","9.689797","lay down","0"
"323266133584819","3","-1.3687763","-0.6314477","9.65147","lay down","0"
"323266153493777","3","-1.3735673","-0.6314477","9.668239","lay down","0"
"323266173412110","3","-1.3807538","-0.62186587","9.7089615","lay down","0"
"323266193330548","3","-1.3855448","-0.6290523","9.685007","lay down","0"
"323266213253777","3","-1.3903357","-0.61947036","9.649075","lay down","0"
"323266233172162","3","-1.3927312","-0.6362387","9.67303","lay down","0"
"323266253086069","3","-1.4047086","-0.6266568","9.675425","lay down","0"
"323266273004454","3","-1.3951266","-0.61467934","9.680216","lay down","0"
"323266292914871","3","-1.3855448","-0.62426126","9.675425","lay down","0"
"323266312833256","3","-1.3879402","-0.6266568","9.680216","lay down","0"
"323266332727267","3","-1.3903357","-0.62426126","9.687403","lay down","0"
"323266352645652","3","-1.3927312","-0.6338432","9.670634","lay down","0"
"323266372559037","3","-1.3783584","-0.6410296","9.685007","lay down","0"
"323266392477423","3","-1.3879402","-0.6458206","9.687403","lay down","0"
"323266412406746","3","-1.4047086","-0.6410296","9.680216","lay down","0"
"323266432325131","3","-1.3951266","-0.6290523","9.692194","lay down","0"
"323266452235079","3","-1.3903357","-0.6410296","9.696984","lay down","0"
"323266472153464","3","-1.3927312","-0.62426126","9.706566","lay down","0"
"323266492060600","3","-1.3783584","-0.61707485","9.677821","lay down","0"
"323266511978985","3","-1.3927312","-0.6362387","9.685007","lay down","0"
"323266531905079","3","-1.3879402","-0.6386341","9.69938","lay down","0"
"323266551823464","3","-1.3855448","-0.6362387","9.694589","lay down","0"
"323266571735131","3","-1.3975221","-0.6482161","9.685007","sit up","0"
"323266591653517","3","-1.3999176","-0.6362387","9.67303","sit up","0"
"323266611556173","3","-1.3903357","-0.62426126","9.685007","sit up","0"
"323266631474558","3","-1.3999176","-0.6314477","9.677821","sit up","0"
"323266651389089","3","-1.4190814","-0.62186587","9.6562605","sit up","0"
"323266671307475","3","-1.4047086","-0.6338432","9.67303","sit up","0"
"323266691240860","3","-1.3903357","-0.6314477","9.696984","sit up","0"
"323266711159246","3","-1.3927312","-0.6266568","9.65147","sit up","0"
"323266731054714","3","-1.407104","-0.6386341","9.663447","sit up","0"
"323266750973100","3","-1.4142904","-0.6386341","9.711357","sit up","0"
"323266770920704","3","-1.3975221","-0.6266568","9.689797","sit up","0"
"323266790839089","3","-1.3879402","-0.6362387","9.665843","sit up","0"
"323266810721798","3","-1.3951266","-0.6290523","9.675425","sit up","0"
"323266830640183","3","-1.3855448","-0.6482161","9.67303","sit up","0"
"323266850583048","3","-1.3807538","-0.6314477","9.675425","sit up","0"
"323266870501433","3","-1.3831493","-0.6386341","9.665843","sit up","0"
"323266890417423","3","-1.3831493","-0.6362387","9.665843","sit up","0"
"323266910335808","3","-1.3759627","-0.6338432","9.680216","sit up","0"
"323266930246589","3","-1.3951266","-0.6458206","9.661052","sit up","0"
"323266950164975","3","-1.3999176","-0.6338432","9.682611","sit up","0"
"323266970047892","3","-1.3951266","-0.6386341","9.694589","sit up","0"
"323266989966277","3","-1.3999176","-0.6266568","9.680216","sit up","0"
"323267009880756","3","-1.402313","-0.62186587","9.687403","sit up","0"
"323267029799142","3","-1.4214768","-0.6338432","9.677821","sit up","0"
"323267049726277","3","-1.3999176","-0.6410296","9.663447","sit up","0"
"323267069644662","3","-1.3951266","-0.6362387","9.685007","sit up","0"
"323267089576277","3","-1.3879402","-0.62186587","9.689797","sit up","0"
"323267109494662","3","-1.3975221","-0.6122838","9.682611","sit up","0"
"323267129408517","3","-1.3879402","-0.6410296","9.670634","sit up","0"
"323267149326902","3","-1.3807538","-0.6434251","9.653866","sit up","0"
"323267169240027","3","-1.3807538","-0.6410296","9.682611","sit up","0"
"323267189158412","3","-1.3831493","-0.6410296","9.689797","sit up","0"
"323267209040287","3","-1.4047086","-0.6266568","9.661052","sit up","0"
"323267228958152","3","-1.3855448","-0.62426126","9.67303","sit up","0"
"323267248869975","3","-1.3951266","-0.6338432","9.685007","sit up","0"
"323267268787892","3","-1.4166859","-0.62186587","9.704171","sit up","0"
"323267288734506","3","-1.411895","-0.62426126","9.680216","sit up","0"
"323267308652423","3","-1.3951266","-0.6314477","9.685007","sit up","0"
"323267328571746","3","-1.411895","-0.6386341","9.701775","sit up","0"
"323267348489714","3","-1.4094994","-0.6266568","9.670634","sit up","0"
"323267368385027","3","-1.3831493","-0.6410296","9.692194","sit up","0"
"323267388302944","3","-1.3687763","-0.602702","9.680216","sit up","0"
"323267408236173","3","-1.3831493","-0.60988843","9.661052","sit up","0"
"323267428154089","3","-1.4262679","-0.6386341","9.67303","sit up","0"
"323267448036173","3","-1.4262679","-0.6506115","9.694589","sit up","0"
"323267467954089","3","-1.411895","-0.6290523","9.682611","sit up","0"
"323267487903048","3","-1.402313","-0.6362387","9.670634","sit up","0"
"323267507820964","3","-1.3759627","-0.6314477","9.692194","sit up","0"
"323267527714246","3","-1.3663809","-0.6410296","9.639493","sit up","0"
"323267547632162","3","-1.371172","-0.65540254","9.620329","sit up","0"
"323267567537110","3","-1.3999176","-0.6314477","9.601165","sit up","0"
"323267587455027","3","-1.457409","-0.6290523","9.591583","sit up","0"
"323267607354142","3","-1.4094994","-0.62186587","9.646679","sit up","0"
"323267627272058","3","-1.352008","-0.6362387","9.617934","sit up","0"
"323267647190496","3","-1.4454317","-0.65300703","9.469414","sit up","0"
"323267667108412","3","-1.5268779","-0.5835382","9.488578","sit up","0"
"323267687007058","3","-1.4861548","-0.5835382","9.677821","sit up","0"
"323267706924975","3","-1.4382453","-0.73924434","9.771244","sit up","0"
"323267726833517","3","-1.5795784","-0.6386341","9.608352","sit up","0"
"323267746751433","3","-1.5556237","-0.5116738","9.459832","sit up","0"
"323267766696642","3","-1.5316689","-0.5595834","9.613143","sit up","0"
"323267786614558","3","-1.6346745","-0.6003065","9.754476","sit up","0"
"323267806491433","3","-1.6706066","-0.65300703","9.713753","sit up","0"
"323267826409350","3","-1.6562338","-0.79434025","9.62991","sit up","0"
"323267846328412","3","-1.7304935","-0.7991313","9.675425","sit up","0"
"323267866246225","3","-1.6993524","-0.6937301","9.718544","sit up","0"
"323267886134142","3","-1.567601","-0.7296624","9.692194","sit up","0"
"323267906052058","3","-1.6274881","-0.83266795","9.608352","sit up","0"
"323267925980860","3","-1.7520529","-0.7991313","9.668239","sit up","0"
"323267945898777","3","-1.7376801","-0.7991313","9.591583","sit up","0"
"323267965827371","3","-1.7544484","-0.7991313","9.529301","sit up","0"
"323267985745287","3","-1.8766179","-0.75361717","9.481391","sit up","0"
"323268005643985","3","-1.9389002","-0.7775719","9.546069","sit up","0"
"323268025561902","3","-1.9580641","-0.9045323","9.723335","sit up","0"
"323268045494350","3","-2.0706515","-1.007538","9.570024","sit up","0"
"323268065412267","3","-2.1760526","-1.0506566","9.570024","sit up","0"
"323268085297475","3","-2.123352","-0.8973459","9.931741","sit up","0"
"323268105215392","3","-1.9868098","-0.79194474","9.835922","sit up","0"
"323268125122735","3","-1.8406856","-0.79194474","9.469414","sit up","0"
"323268145040652","3","-1.7640303","-0.8111087","9.371199","sit up","0"
"323268164983517","3","-1.8646404","-0.8063177","9.5436735","sit up","0"
"323268184901433","3","-2.063465","-0.75361717","9.75208","sit up","0"
"323268204775652","3","-2.1497023","-0.75361717","9.893414","sit up","0"
"323268224693569","3","-2.2119846","-0.8063177","9.970069","sit up","0"
"323268244605548","3","-2.2359395","-0.82548153","9.876645","sit up","0"
"323268264523464","3","-2.1449113","-0.83266795","9.696984","sit up","0"
"323268284446121","3","-2.0658607","-0.8973459","9.613143","sit up","0"
"323268304364037","3","-1.9269229","-0.91171885","9.637098","sit up","0"
"323268324257892","3","-1.747262","-0.79434025","9.59877","sit up","0"
"323268344175808","3","-1.7017479","-0.70810306","9.5173235","sit up","0"
"323268364098412","3","-1.6945615","-0.6817528","9.469414","sit up","0"
"323268384016329","3","-1.6969569","-0.7128941","9.541278","sit up","0"
"323268403922371","3","-1.6849796","-0.7248714","9.574815","sit up","0"
"323268423840287","3","-1.6586292","-0.70091665","9.531696","sit up","0"
"323268443769923","3","-1.5412508","-0.65779805","9.4766","sit up","0"
"323268463687892","3","-1.5172961","-0.6865438","9.383177","sit up","0"
"323268483597371","3","-1.5628102","-0.6961256","9.457437","sit up","0"
"323268503515287","3","-1.6083243","-0.66258895","9.582001","sit up","0"
"323268523426329","3","-1.5939513","-0.6865438","9.510137","sit up","0"
"323268543344246","3","-1.5292735","-0.66977537","9.526905","sit up","0"
"323268563224089","3","-1.507714","-0.6817528","9.644284","sit up","0"
"323268583141954","3","-1.5747875","-0.66258895","9.711357","sit up","0"
"323268603079350","3","-1.6203016","-0.6266568","9.744894","sit up","0"
"323268622997267","3","-1.5939513","-0.5883291","9.754476","sit up","0"
"323268642907527","3","-1.6586292","-0.5164647","9.704171","sit up","0"
"323268662825496","3","-1.8095443","-0.5188602","9.653866","sit up","0"
"323268682736329","3","-1.9293183","-0.6314477","9.792804","sit up","0"
"323268702654246","3","-1.9269229","-0.70331216","9.883832","sit up","0"
"323268722568204","3","-1.9149455","-0.76799","9.831131","sit up","0"
"323268742486121","3","-1.7879851","-0.8015268","9.74729","sit up","0"
"323268762371121","3","-1.6730021","-0.78475845","9.637098","sit up","0"
"323268782289037","3","-1.577183","-0.6865438","9.570024","sit up","0"
"323268802237579","3","-1.6250925","-0.597911","9.562838","sit up","0"
"323268822155444","3","-1.5388553","-0.62186587","9.601165","sit up","0"
"323268842042996","3","-1.4813639","-0.6865438","9.670634","sit up","0"
"323268861960964","3","-1.4334543","-0.717685","9.601165","sit up","0"
"323268881894662","3","-1.3879402","-0.7272669","9.574815","sit up","0"
"323268901811902","3","-1.3879402","-0.7320578","9.5436735","sit up","0"
"323268921707423","3","-1.4358497","-0.74163973","9.567629","sit up","0"
"323268941624662","3","-1.3783584","-0.73924434","9.718544","sit up","0"
"323268961561069","3","-1.306494","-0.6937301","9.780826","sit up","0"
"323268981478308","3","-1.2801437","-0.62186587","9.67303","sit up","0"
"323269001406537","3","-1.2154658","-0.6458206","9.486182","sit up","0"
"323269021323777","3","-1.2154658","-0.7224759","9.419108","sit up","0"
"323269041208256","3","-1.1747426","-0.74403524","9.658657","sit up","0"
"323269061125496","3","-1.1148556","-0.7560127","9.82634","sit up","0"
"323269081038464","3","-1.0573641","-0.717685","9.7880125","sit up","0"
"323269100955704","3","-1.1986973","-0.7200804","9.646679","sit up","0"
"323269120895183","3","-1.3687763","-0.66977537","9.610746","sit up","0"
"323269140812423","3","-1.4334543","-0.6386341","9.742498","sit up","0"
"323269160722214","3","-1.466991","-0.66019344","9.823945","sit up","0"
"323269180639454","3","-1.5388553","-0.6506115","9.718544","sit up","0"
"323269200538152","3","-1.5244825","-0.6434251","9.582001","sit up","0"
"323269220455392","3","-1.4334543","-0.65540254","9.57242","sit up","0"
"323269240402631","3","-1.4094994","-0.6074929","9.610746","sit up","0"
"323269260319871","3","-1.4622","-0.6074929","9.75208","sit up","0"
"323269280201329","3","-1.4310589","-0.65300703","9.847899","sit up","0"
"323269300118569","3","-1.3759627","-0.6865438","9.720939","sit up","0"
"323269320033777","3","-1.3448216","-0.70091665","9.62991","sit up","0"
"323269339951017","3","-1.2633753","-0.65300703","9.665843","sit up","0"
"323269359867371","3","-1.2705617","-0.65540254","9.663447","sit up","0"
"323269379784610","3","-1.2945166","-0.6362387","9.67303","sit up","0"
"323269399693985","3","-1.2657708","-0.6506115","9.723335","sit up","0"
"323269419611225","3","-1.1915109","-0.66977537","9.675425","sit up","0"
"323269439523048","3","-1.1340195","-0.6865438","9.644284","sit up","0"
"323269459440287","3","-1.126833","-0.7104986","9.644284","sit up","0"
"323269479375808","3","-1.1555787","-0.6889392","9.685007","sit up","0"
"323269499293048","3","-1.2106748","-0.65779805","9.711357","sit up","0"
"323269519187214","3","-1.2633753","-0.6266568","9.661052","sit up","0"
"323269539104454","3","-1.3160758","-0.61707485","9.622725","sit up","0"
"323269559016746","3","-1.337635","-0.62426126","9.649075","sit up","0"
"323269578933985","3","-1.3759627","-0.66019344","9.706566","sit up","0"
"323269598865183","3","-1.3759627","-0.65779805","9.7089615","sit up","0"
"323269618782475","3","-1.3448216","-0.66019344","9.670634","sit up","0"
"323269638681954","3","-1.3232622","-0.6745664","9.701775","sit up","0"
"323269658599194","3","-1.2825391","-0.6745664","9.713753","sit up","0"
"323269678510339","3","-1.292121","-0.65779805","9.663447","sit up","0"
"323269698427579","3","-1.3208668","-0.6865438","9.730521","sit up","0"
"323269718369142","3","-1.3328443","-0.6913347","9.749685","sit up","0"
"323269738286381","3","-1.301703","-0.66977537","9.692194","sit up","0"
"323269758169610","3","-1.2729573","-0.6338432","9.668239","sit up","0"
"323269778086850","3","-1.2561889","-0.6314477","9.7089615","sit up","0"
"323269798037110","3","-1.2873302","-0.65300703","9.730521","sit up","0"
"323269817954402","3","-1.296912","-0.65540254","9.728126","sit up","0"
"323269837863777","3","-1.301703","-0.66258895","9.675425","sit up","0"
"323269857781069","3","-1.2777481","-0.66737986","9.675425","sit up","0"
"323269877665444","3","-1.2777481","-0.6745664","9.692194","sit up","0"
"323269897582735","3","-1.301703","-0.66737986","9.668239","sit up","0"
"323269917495964","3","-1.2897255","-0.65300703","9.663447","sit up","0"
"323269937412892","3","-1.2849346","-0.6482161","9.69938","sit up","0"
"323269957348673","3","-1.301703","-0.65300703","9.692194","sit up","0"
"323269977265600","3","-1.306494","-0.66019344","9.685007","sit up","0"
"323269997162996","3","-1.2993075","-0.65779805","9.692194","sit up","0"
"323270017079871","3","-1.2873302","-0.6482161","9.677821","sit up","0"
"323270037024975","3","-1.292121","-0.6482161","9.677821","sit up","0"
"323270056941902","3","-1.3040984","-0.6482161","9.689797","sit up","0"
"323270076860444","3","-1.306494","-0.65779805","9.696984","sit up","0"
"323270096777371","3","-1.3112848","-0.6410296","9.680216","sit up","0"
"323270116671329","3","-1.3088894","-0.65540254","9.668239","sit up","0"
"323270136588256","3","-1.3232622","-0.6458206","9.658657","sit up","0"
"323270156505912","3","-1.3088894","-0.6434251","9.692194","sit up","0"
"323270176422839","3","-1.3112848","-0.65300703","9.687403","sit up","0"
"323270196340548","3","-1.306494","-0.66498446","9.718544","sit up","0"
"323270216257423","3","-1.306494","-0.65300703","9.732917","sit up","0"
"323270236174506","3","-1.2873302","-0.6434251","9.682611","sit up","0"
"323270256091433","3","-1.3088894","-0.65540254","9.641888","sit up","0"
"323270276007006","3","-1.3040984","-0.6506115","9.685007","sit up","0"
"323270295923933","3","-1.2657708","-0.66498446","9.701775","sit up","0"
"323270315837527","3","-1.2537935","-0.65540254","9.682611","sit up","0"
"323270335753673","3","-1.2993075","-0.6362387","9.65147","sit up","0"
"323270355685339","3","-1.3304486","-0.6290523","9.677821","sit up","0"
"323270375602267","3","-1.3232622","-0.65540254","9.790408","sit up","0"
"323270395501642","3","-1.296912","-0.66737986","9.740103","sit up","0"
"323270415418569","3","-1.3304486","-0.6745664","9.60356","sit up","0"
"323270435335131","3","-1.356799","-0.6458206","9.613143","sit up","0"
"323270455252058","3","-1.3208668","-0.6290523","9.713753","sit up","0"
"323270475161121","3","-1.2777481","-0.6338432","9.780826","sit up","0"
"323270495078048","3","-1.2753527","-0.65300703","9.723335","sit up","0"
"323270515003100","3","-1.2945166","-0.6745664","9.682611","sit up","0"
"323270534920027","3","-1.2442114","-0.66977537","9.696984","sit up","0"
"323270554845860","3","-1.2609799","-0.6458206","9.685007","sit up","0"
"323270574762787","3","-1.2753527","-0.6769619","9.661052","stand up","0"
"323270594697371","3","-1.3232622","-0.66737986","9.62991","stand up","0"
"323270614614298","3","-1.3112848","-0.6338432","9.646679","stand up","0"
"323270634499819","3","-1.2945166","-0.65300703","9.7089615","stand up","0"
"323270654416746","3","-1.2729573","-0.6793574","9.687403","stand up","0"
"323270674332944","3","-1.2825391","-0.66737986","9.62991","stand up","0"
"323270694249871","3","-1.2849346","-0.66019344","9.677821","stand up","0"
"323270714186694","3","-1.2729573","-0.65779805","9.771244","stand up","0"
"323270734103621","3","-1.296912","-0.6721709","9.713753","stand up","0"
"323270754000027","3","-1.301703","-0.66737986","9.689797","stand up","0"
"323270773916954","3","-1.3328443","-0.6458206","9.685007","stand up","0"
"323270793834089","3","-1.3328443","-0.6410296","9.716147","stand up","0"
"323270813751017","3","-1.306494","-0.65300703","9.685007","stand up","0"
"323270833690808","3","-1.2945166","-0.66498446","9.646679","stand up","0"
"323270853607735","3","-1.2705617","-0.65779805","9.6562605","stand up","0"
"323270873510496","3","-1.2585844","-0.65540254","9.720939","stand up","0"
"323270893427423","3","-1.237025","-0.6434251","9.658657","stand up","0"
"323270913348308","3","-1.2729573","-0.6314477","9.582001","stand up","0"
"323270933265235","3","-1.3160758","-0.6410296","9.620329","stand up","0"
"323270953204871","3","-1.3184713","-0.6721709","9.7089615","stand up","0"
"323270973121798","3","-1.3184713","-0.6769619","9.692194","stand up","0"
"323270993023517","3","-1.3136804","-0.66258895","9.665843","stand up","0"
"323271012940444","3","-1.3184713","-0.6434251","9.756871","stand up","0"
"323271032854298","3","-1.3112848","-0.6266568","9.759267","stand up","0"
"323271052771225","3","-1.3280532","-0.62426126","9.711357","stand up","0"
"323271072718829","3","-1.3304486","-0.65540254","9.692194","stand up","0"
"323271092635756","3","-1.3496125","-0.6458206","9.704171","stand up","0"
"323271112523985","3","-1.3472171","-0.62426126","9.720939","stand up","0"
"323271132440912","3","-1.356799","-0.6386341","9.711357","stand up","0"
"323271152385235","3","-1.3663809","-0.66737986","9.718544","stand up","0"
"323271172302162","3","-1.3400307","-0.6865438","9.7089615","stand up","0"
"323271192226173","3","-1.3088894","-0.6769619","9.677821","stand up","0"
"323271212143100","3","-1.301703","-0.6745664","9.740103","stand up","0"
"323271232029402","3","-1.2226522","-0.6841483","9.792804","stand up","0"
"323271251946329","3","-1.1483923","-0.6793574","9.768848","stand up","0"
"323271271864350","3","-1.1675562","-0.6721709","9.7089615","stand up","0"
"323271291781277","3","-1.2034883","-0.66498446","9.69938","stand up","0"
"323271311720339","3","-1.2825391","-0.61947036","9.605956","stand up","0"
"323271331637267","3","-1.1244376","-0.56676984","9.6562605","stand up","0"
"323271351561017","3","-0.82739824","-0.5859337","9.644284","stand up","0"
"323271371477944","3","-1.2633753","-0.6458206","9.579606","stand up","0"
"323271391374089","3","-1.522087","-0.6266568","9.661052","stand up","0"
"323271411291069","3","-1.3735673","-0.6386341","9.893414","stand up","0"
"323271431235600","3","-1.246607","-0.70091665","9.838318","stand up","0"
"323271451152527","3","-1.3400307","-0.6889392","9.565233","stand up","0"
"323271471034975","3","-1.5316689","-0.6769619","9.536487","stand up","0"
"323271490951850","3","-1.4885503","-0.60988843","9.7880125","stand up","0"
"323271510867892","3","-1.3400307","-0.53083766","9.843109","stand up","0"
"323271530781537","3","-1.2202567","-0.57874715","9.864668","stand up","0"
"323271550698412","3","-1.1220421","-0.6386341","9.931741","stand up","0"
"323271570649558","3","-0.62138706","-0.6745664","9.94851","stand up","0"
"323271590566537","3","-0.72439265","-0.7703855","9.696984","stand up","0"
"323271610483048","3","-1.3232622","-0.7320578","9.4909725","stand up","0"
"323271630399975","3","-1.8047535","-0.61947036","9.720939","stand up","0"
"323271650317579","3","-1.9245274","-0.70810306","9.718544","stand up","0"
"323271670234506","3","-1.5699966","-0.7320578","9.522115","stand up","0"
"323271690149662","3","-0.7938615","-0.7296624","9.505346","stand up","0"
"323271710066589","3","-0.22852856","-0.76799","9.60356","stand up","0"
"323271729963308","3","-0.18301451","-0.7296624","9.627516","stand up","0"
"323271749880235","3","-0.48724028","-0.66737986","9.644284","stand up","0"
"323271769817527","3","-0.6597147","-0.66498446","9.692194","stand up","0"
"323271789734454","3","-0.5950368","-0.6314477","9.74729","stand up","0"
"323271809645912","3","-0.6046187","-0.6410296","9.754476","stand up","0"
"323271829562839","3","-0.6836695","-0.62186587","9.7089615","stand up","0"
"323271849478100","3","-0.75313836","-0.65779805","9.718544","stand up","0"
"323271869395027","3","-0.7124152","-0.66977537","9.720939","stand up","0"
"323271889306746","3","-0.62138706","-0.66498446","9.718544","stand up","0"
"323271909223673","3","-0.6525283","-0.6338432","9.737708","stand up","0"
"323271929142058","3","-0.7196017","-0.5907246","9.75208","stand up","0"
"323271949058985","3","-0.76032484","-0.6266568","9.706566","stand up","0"
"323271968982371","3","-0.7866751","-0.65779805","9.67303","stand up","0"
"323271988899298","3","-0.72439265","-0.66258895","9.716147","stand up","0"
"323272008783308","3","-0.74595195","-0.6338432","9.771244","stand up","0"
"323272028700287","3","-0.6956469","-0.6482161","9.711357","stand up","0"
"323272048654142","3","-0.7196017","-0.65300703","9.675425","stand up","0"
"323272068571121","3","-0.7267881","-0.65300703","9.72573","stand up","0"
"323272088454610","3","-0.73157907","-0.6362387","9.768848","stand up","0"
"323272108371537","3","-0.73157907","-0.6410296","9.759267","stand up","0"
"323272128291277","3","-0.71001977","-0.66019344","9.716147","stand up","0"
"323272148208204","3","-0.6597147","-0.6410296","9.716147","stand up","0"
"323272168120444","3","-0.7124152","-0.6362387","9.732917","stand up","0"
"323272188037423","3","-0.70043784","-0.6458206","9.740103","stand up","0"
"323272207958360","3","-0.71001977","-0.66019344","9.728126","stand up","0"
"323272227875287","3","-0.73157907","-0.6458206","9.728126","stand up","0"
"323272247795131","3","-0.7124152","-0.6362387","9.723335","stand up","0"
"323272267712058","3","-0.70043784","-0.6410296","9.718544","stand up","0"
"323272287661537","3","-0.74595195","-0.6386341","9.744894","stand up","0"
"323272307578517","3","-0.70283335","-0.6386341","9.742498","stand up","0"
"323272327467631","3","-0.73157907","-0.6290523","9.718544","stand up","0"
"323272347384506","3","-0.73157907","-0.6386341","9.732917","stand up","0"
"323272367322214","3","-0.7052288","-0.6506115","9.72573","stand up","0"
"323272387239194","3","-0.71001977","-0.6745664","9.7353115","stand up","0"
"323272407174506","3","-0.7267881","-0.65540254","9.732917","stand up","0"
"323272427091485","3","-0.72439265","-0.6506115","9.749685","stand up","0"
"323272447014194","3","-0.7076243","-0.66258895","9.720939","stand up","0"
"323272466931121","3","-0.7148107","-0.6506115","9.713753","stand up","0"
"323272486814975","3","-0.7148107","-0.62426126","9.766453","stand up","0"
"323272506731902","3","-0.7172062","-0.6458206","9.776035","stand up","0"
"323272526662579","3","-0.7267881","-0.6386341","9.7089615","stand up","0"
"323272546579558","3","-0.7052288","-0.6410296","9.7089615","stand up","0"
"323272566504767","3","-0.7148107","-0.66737986","9.718544","stand up","0"
"323272586421850","3","-0.6836695","-0.6410296","9.720939","stand up","0"
"323272606325287","3","-0.72199714","-0.6386341","9.749685","stand up","0"
"323272626242371","3","-0.7172062","-0.6362387","9.742498","stand up","0"
"323272646193464","3","-0.7196017","-0.65300703","9.723335","stand up","0"
"323272666110496","3","-0.7052288","-0.6410296","9.732917","stand up","0"
"323272685998360","3","-0.7076243","-0.6458206","9.711357","stand up","0"
"323272705915444","3","-0.70283335","-0.6338432","9.718544","stand up","0"
"323272725832110","3","-0.71001977","-0.6410296","9.742498","stand up","0"
"323272745749194","3","-0.72439265","-0.65540254","9.764058","stand up","0"
"323272765702527","3","-0.71001977","-0.6482161","9.730521","stand up","0"
"323272785619610","3","-0.6956469","-0.6458206","9.711357","stand up","0"
"323272805529350","3","-0.6836695","-0.65540254","9.720939","stand up","0"
"323272825424142","3","-0.7124152","-0.6362387","9.737708","stand up","0"
"323272845349194","3","-0.72199714","-0.6410296","9.74729","stand up","0"
"323272865266329","3","-0.7196017","-0.65540254","9.723335","stand up","0"
"323272885195392","3","-0.71001977","-0.66737986","9.704171","stand up","0"
"323272905112527","3","-0.71001977","-0.6410296","9.744894","stand up","0"
"323272925038829","3","-0.6956469","-0.6434251","9.759267","stand up","0"
"323272944955964","3","-0.7267881","-0.6506115","9.704171","stand up","0"
"323272964857787","3","-0.71001977","-0.6458206","9.72573","stand up","0"
"323272984774923","3","-0.7076243","-0.6290523","9.754476","stand up","0"
"323273004712267","3","-0.6980424","-0.6506115","9.723335","stand up","0"
"323273024629402","3","-0.70043784","-0.6434251","9.730521","stand up","0"
"323273044532735","3","-0.7124152","-0.6434251","9.764058","stand up","0"
"323273064449871","3","-0.71001977","-0.6458206","9.754476","stand up","0"
"323273084372996","3","-0.7148107","-0.6410296","9.730521","stand up","0"
"323273104290131","3","-0.7052288","-0.6458206","9.744894","stand up","0"
"323273124190444","3","-0.7291836","-0.6482161","9.742498","stand up","0"
"323273144107527","3","-0.70283335","-0.65540254","9.732917","stand up","0"
"323273164041433","3","-0.71001977","-0.6362387","9.742498","stand up","0"
"323273183958569","3","-0.71001977","-0.65300703","9.737708","stand up","0"
"323273203870548","3","-0.6956469","-0.6434251","9.723335","stand up","0"
"323273223787683","3","-0.7196017","-0.6482161","9.732917","stand up","0"
"323273243700600","3","-0.7052288","-0.6458206","9.749685","stand up","0"
"323273263617735","3","-0.70283335","-0.6338432","9.730521","stand up","0"
"323273283529142","3","-0.7124152","-0.6338432","9.728126","stand up","0"
"323273303446277","3","-0.70283335","-0.65540254","9.744894","stand up","0"
"323273323347787","3","-0.7052288","-0.6458206","9.7353115","stand up","0"
"323273343264871","3","-0.6980424","-0.6482161","9.72573","stand up","0"
"323273363162214","3","-0.6956469","-0.65540254","9.730521","stand up","0"
"323273383079298","3","-0.68606496","-0.6482161","9.737708","stand up","0"
"323273403025235","3","-0.71001977","-0.6458206","9.728126","stand up","0"
"323273422942371","3","-0.7052288","-0.6506115","9.706566","stand up","0"
"323273442858569","3","-0.7052288","-0.6458206","9.711357","stand up","0"
"323273462775704","3","-0.6956469","-0.6482161","9.720939","stand up","0"
"323273482693881","3","-0.7172062","-0.6506115","9.72573","stand up","0"
"323273502611017","3","-0.7172062","-0.6434251","9.740103","stand up","0"
"323273522529037","3","-0.7076243","-0.65300703","9.7353115","stand up","0"
"323273542446173","3","-0.70043784","-0.65779805","9.737708","stand up","0"
"323273562349871","3","-0.7124152","-0.65540254","9.7353115","stand up","0"
"323273582266902","3","-0.7124152","-0.6482161","9.720939","stand up","0"
"323273602207058","3","-0.71001977","-0.6458206","9.716147","stand up","0"
"323273622124089","3","-0.70043784","-0.6482161","9.720939","stand up","0"
"323273642034506","3","-0.6980424","-0.6386341","9.72573","stand up","0"
"323273661951589","3","-0.68606496","-0.6410296","9.723335","stand up","0"
"323273681841589","3","-0.69325143","-0.6506115","9.737708","stand up","0"
"323273701758621","3","-0.70283335","-0.6482161","9.7353115","stand up","0"
"323273721699819","3","-0.7076243","-0.6458206","9.7353115","stand up","0"
"323273741616850","3","-0.7076243","-0.6458206","9.742498","stand up","0"
"323273761526433","3","-0.7076243","-0.6506115","9.718544","stand up","0"
"323273781443517","3","-0.6956469","-0.65540254","9.7353115","stand up","0"
"323273801345808","3","-0.68846047","-0.6434251","9.730521","stand up","0"
"323273821262892","3","-0.7124152","-0.6482161","9.7353115","stand up","0"
"323273841201121","3","-0.6908559","-0.6410296","9.737708","stand up","0"
"323273861118152","3","-0.6836695","-0.6506115","9.740103","stand up","0"
"323273881016381","3","-0.70043784","-0.6506115","9.75208","stand up","0"
"323273900933412","3","-0.72199714","-0.6314477","9.723335","stand up","0"
"323273920852735","3","-0.7052288","-0.6434251","9.744894","stand up","0"
"323273940769767","3","-0.7196017","-0.6458206","9.737708","stand up","0"
"323273960713881","3","-0.70043784","-0.6338432","9.72573","stand up","0"
"323273980630912","3","-0.7076243","-0.6482161","9.72573","stand up","0"
"323274000524662","3","-0.7052288","-0.6482161","9.716147","stand up","0"
"323274020441694","3","-0.6908559","-0.6506115","9.72573","stand up","0"
"323274040362058","3","-0.70283335","-0.6410296","9.737708","stand up","0"
"323274060279037","3","-0.6836695","-0.6434251","9.742498","stand up","0"
"323274080224402","3","-0.7052288","-0.65779805","9.723335","stand up","0"
"323274100141433","3","-0.7052288","-0.6506115","9.723335","stand up","0"
"323274120045496","3","-0.70043784","-0.6386341","9.723335","stand up","0"
"323274139962527","3","-0.7076243","-0.6410296","9.732917","stand up","0"
"323274159879454","3","-0.71001977","-0.65779805","9.711357","stand up","0"
"323274179796485","3","-0.67887855","-0.6386341","9.713753","stand up","0"
"323274199728829","3","-0.70283335","-0.6410296","9.730521","stand up","0"
"323274219645860","3","-0.6980424","-0.6410296","9.744894","stand up","0"
"323274239546173","3","-0.6956469","-0.6410296","9.740103","stand up","0"
"323274259463204","3","-0.7076243","-0.6506115","9.742498","stand up","0"
"323274279375392","3","-0.6908559","-0.65300703","9.7353115","stand up","0"
"323274299292423","3","-0.6956469","-0.65300703","9.7353115","stand up","0"
"323274319192579","3","-0.6980424","-0.6386341","9.7353115","stand up","0"
"323274339109610","3","-0.70043784","-0.6482161","9.749685","stand up","0"
"323274359044975","3","-0.70283335","-0.6482161","9.744894","stand up","0"
"323274378962006","3","-0.6908559","-0.6410296","9.72573","stand up","0"
"323274398881277","3","-0.6908559","-0.6338432","9.7089615","stand up","0"
"323274418798308","3","-0.69325143","-0.6362387","9.72573","stand up","0"
"323274438706277","3","-0.70043784","-0.65540254","9.720939","stand up","0"
"323274458623308","3","-0.71001977","-0.65540254","9.718544","stand up","0"
"323274478549871","3","-0.71001977","-0.6410296","9.732917","stand up","0"
"323274498466902","3","-0.6980424","-0.6338432","9.75208","stand up","0"
"323274518367996","3","-0.69325143","-0.6458206","9.7353115","stand up","0"
"323274538284975","3","-0.6908559","-0.6434251","9.732917","stand up","0"
"323274558228204","3","-0.6956469","-0.6458206","9.701775","stand up","0"
"323274677706485","3","-0.7052288","-0.6386341","9.677821","stand up","1"
"323274697623569","3","-0.7124152","-0.6410296","9.761662","none","1"
"323274717551537","3","-0.70283335","-0.6410296","9.730521","none","1"
"323274737468569","3","-0.70043784","-0.6458206","9.730521","none","1"
"323274757384142","3","-0.70283335","-0.6434251","9.7353115","none","1"
"323274777301173","3","-0.69325143","-0.6506115","9.7353115","none","1"
"323274797206746","3","-0.6980424","-0.6410296","9.720939","none","1"
"323274817123777","3","-0.6980424","-0.6362387","9.7353115","none","1"
"323274837066329","3","-0.6908559","-0.65540254","9.711357","none","1"
"323274856983360","3","-0.6956469","-0.6482161","9.7089615","none","1"
"323274876871642","3","-0.7076243","-0.6482161","9.730521","none","1"
"323274896788673","3","-0.71001977","-0.6458206","9.728126","none","1"
"323274916707892","3","-0.7052288","-0.65779805","9.744894","none","1"
"323274936624923","3","-0.6980424","-0.6458206","9.744894","none","1"
"323274956539506","3","-0.6980424","-0.6458206","9.723335","none","1"
"323274976456537","3","-0.6956469","-0.6386341","9.728126","none","1"
"323274996377006","3","-0.6956469","-0.6434251","9.723335","none","1"
"323275016294037","3","-0.68127406","-0.65540254","9.711357","none","1"
"323275036209350","3","-0.6908559","-0.6386341","9.7353115","none","1"
"323275056126381","3","-0.7052288","-0.6314477","9.74729","none","1"
"323275076055444","3","-0.70043784","-0.6458206","9.749685","none","1"
"323275095972475","3","-0.7076243","-0.6458206","9.728126","none","1"
"323275115880808","3","-0.69325143","-0.65540254","9.740103","none","1"
"323275135797839","3","-0.68846047","-0.65540254","9.744894","none","1"
"323275155738673","3","-0.69325143","-0.6386341","9.730521","none","1"
"323275175655704","3","-0.7052288","-0.6482161","9.737708","none","1"
"323275195552735","3","-0.6908559","-0.6410296","9.7353115","none","1"
"323275215469767","3","-0.7052288","-0.65540254","9.761662","none","1"
"323275235388360","3","-0.6980424","-0.6458206","9.761662","none","1"
"323275255305392","3","-0.6836695","-0.6314477","9.742498","none","1"
"323275275228673","3","-0.69325143","-0.6386341","9.732917","none","1"
"323275295145704","3","-0.68846047","-0.65779805","9.730521","none","1"
"323275315075392","3","-0.69325143","-0.6458206","9.74729","none","1"
"323275334992423","3","-0.6956469","-0.6386341","9.740103","none","1"
"323275354915496","3","-0.70283335","-0.6386341","9.7353115","none","1"
"323275374832527","3","-0.7124152","-0.6506115","9.7353115","none","1"
"323275394735548","3","-0.68606496","-0.6386341","9.744894","none","1"
"323275414652579","3","-0.6908559","-0.6482161","9.72573","none","1"
"323275434594714","3","-0.6980424","-0.65540254","9.728126","none","1"
"323275454511746","3","-0.7148107","-0.6482161","9.749685","none","1"
"323275474415287","3","-0.7124152","-0.65300703","9.728126","none","1"
"323275494332319","3","-0.6980424","-0.6458206","9.7353115","none","1"
"323275514260652","3","-0.70043784","-0.6410296","9.749685","none","1"
"323275534177683","3","-0.7076243","-0.6362387","9.754476","none","1"
"323275554105496","3","-0.68846047","-0.6458206","9.730521","none","1"
"323275574022527","3","-0.69325143","-0.65300703","9.728126","none","1"
"323275593929194","3","-0.6956469","-0.6506115","9.742498","none","1"
"323275613846225","3","-0.6980424","-0.65779805","9.732917","none","1"
"323275633770496","3","-0.70043784","-0.6458206","9.7353115","none","1"
"323275653687527","3","-0.7124152","-0.6386341","9.728126","none","1"
"323275673609819","3","-0.6956469","-0.6338432","9.72573","none","1"
"323275693526850","3","-0.68846047","-0.6386341","9.7353115","none","1"
"323275713441329","3","-0.6980424","-0.6434251","9.744894","none","1"
"323275733358360","3","-0.68846047","-0.6410296","9.74729","none","1"
"323275753265808","3","-0.70283335","-0.6362387","9.730521","none","1"
"323275773182839","3","-0.7076243","-0.6506115","9.720939","none","1"
"323275793124610","3","-0.6980424","-0.65540254","9.744894","none","1"
"323275813041642","3","-0.70043784","-0.6410296","9.728126","none","1"
"323275832957683","3","-0.6956469","-0.6434251","9.716147","none","1"
"323275852874714","3","-0.6980424","-0.6434251","9.740103","none","1"
"323275872784714","3","-0.68846047","-0.65779805","9.723335","none","1"
"323275892701746","3","-0.6956469","-0.65300703","9.716147","none","1"
"323275912625756","3","-0.6908559","-0.6434251","9.7353115","none","1"
"323275932542787","3","-0.7124152","-0.65779805","9.740103","none","1"
"323275952463464","3","-0.69325143","-0.6482161","9.730521","none","1"
"323275972380496","3","-0.68606496","-0.6458206","9.713753","none","1"
"323275992317579","3","-0.71001977","-0.6506115","9.74729","none","1"
"323276012234662","3","-0.6908559","-0.6314477","9.742498","none","1"
"323276032133777","3","-0.68606496","-0.6482161","9.716147","none","1"
"323276052050860","3","-0.70283335","-0.6410296","9.740103","none","1"
"323276071969975","3","-0.7172062","-0.6482161","9.732917","none","1"
"323276091887006","3","-0.6956469","-0.66019344","9.7353115","none","1"
"323276111786902","3","-0.6980424","-0.65300703","9.723335","none","1"
"323276131703933","3","-0.7052288","-0.6482161","9.72573","none","1"
"323276151638985","3","-0.6956469","-0.6410296","9.737708","none","1"
"323276171556069","3","-0.6980424","-0.6434251","9.737708","none","1"
"323276191476433","3","-0.70043784","-0.6386341","9.740103","none","1"
"323276211393464","3","-0.6956469","-0.6458206","9.74729","none","1"
"323276231301329","3","-0.68846047","-0.6410296","9.728126","none","1"
"323276251218360","3","-0.6980424","-0.6338432","9.740103","none","1"
"323276271147475","3","-0.70283335","-0.6482161","9.740103","none","1"
"323276291064506","3","-0.6836695","-0.6458206","9.730521","none","1"
"323276310982214","3","-0.69325143","-0.65540254","9.742498","none","1"
"323276330899298","3","-0.6980424","-0.6362387","9.7353115","none","1"
"323276350800183","3","-0.69325143","-0.6290523","9.730521","none","1"
"323276370717214","3","-0.6980424","-0.6458206","9.744894","none","1"
"323276390651329","3","-0.70043784","-0.65300703","9.744894","none","1"
"323276410568360","3","-0.6908559","-0.65779805","9.72573","none","1"
"323276430474454","3","-0.69325143","-0.6434251","9.737708","none","1"
"323276450391485","3","-0.7052288","-0.65300703","9.744894","none","1"
"323276470334714","3","-0.6980424","-0.6482161","9.723335","none","1"
"323276490251798","3","-0.6980424","-0.6458206","9.728126","none","1"
"323276510156537","3","-0.69325143","-0.6458206","9.749685","none","1"
"323276530073621","3","-0.6956469","-0.6458206","9.756871","none","1"
"323276549991537","3","-0.6740876","-0.6506115","9.744894","none","1"
"323276569908621","3","-0.70283335","-0.65300703","9.7353115","none","1"
"323276589829871","3","-0.70043784","-0.6458206","9.74729","none","1"
"323276609746954","3","-0.6980424","-0.6314477","9.730521","none","1"
"323276629679350","3","-0.6956469","-0.6458206","9.759267","none","1"
"323276649596589","3","-0.6908559","-0.6482161","9.744894","none","1"
"323276669508725","3","-0.7076243","-0.6482161","9.742498","none","1"
"323276689426017","3","-0.6836695","-0.65540254","9.728126","none","1"
"323276709349037","3","-0.69325143","-0.6434251","9.728126","none","1"
"323276729266329","3","-0.67887855","-0.6386341","9.718544","none","1"
"323276749184610","3","-0.68846047","-0.65779805","9.7353115","none","1"
"323276769101902","3","-0.6980424","-0.65540254","9.7353115","none","1"
"323276789020756","3","-0.6980424","-0.65300703","9.764058","none","1"
"323276808938048","3","-0.6908559","-0.6482161","9.75208","none","1"
"323276828857110","3","-0.70283335","-0.6362387","9.720939","none","1"
"323276848774402","3","-0.68846047","-0.65540254","9.756871","none","1"
"323276868693725","3","-0.69325143","-0.6458206","9.732917","none","1"
"323276888611017","3","-0.6956469","-0.6386341","9.728126","none","1"
"323276908532162","3","-0.6908559","-0.6434251","9.730521","none","1"
"323276928449454","3","-0.6740876","-0.6458206","9.742498","none","1"
"323276948369558","3","-0.6956469","-0.6482161","9.718544","none","1"
"323276968286850","3","-0.68606496","-0.6362387","9.723335","none","1"
"323276988216329","3","-0.68606496","-0.6482161","9.72573","none","1"
"323277008133621","3","-0.6908559","-0.6458206","9.730521","none","1"
"323277028039350","3","-0.68846047","-0.6386341","9.74729","none","1"
"323277047956642","3","-0.69325143","-0.6362387","9.704171","none","1"
"323277067893048","3","-0.6956469","-0.65300703","9.718544","none","1"
"323277087810339","3","-0.7052288","-0.6506115","9.742498","none","1"
"323277107730235","3","-0.6956469","-0.6386341","9.744894","none","1"
"323277127647527","3","-0.6908559","-0.6386341","9.732917","none","1"
"323277147575548","3","-0.70043784","-0.65779805","9.720939","none","1"
"323277167492839","3","-0.68127406","-0.6506115","9.72573","none","1"
"323277187403725","3","-0.6908559","-0.62426126","9.718544","none","1"
"323277207321017","3","-0.6908559","-0.6338432","9.742498","none","1"
"323277227235392","3","-0.70043784","-0.6506115","9.754476","none","1"
"323277247152683","3","-0.69325143","-0.6362387","9.732917","none","1"
"323277267061225","3","-0.71001977","-0.6338432","9.74729","none","1"
"323277286978464","3","-0.70043784","-0.6482161","9.75208","none","1"
"323277306907162","3","-0.6836695","-0.6434251","9.72573","none","1"
"323277326824454","3","-0.70043784","-0.6386341","9.713753","none","1"
"323277346741954","3","-0.6956469","-0.6482161","9.740103","none","1"
"323277366659246","3","-0.6980424","-0.6410296","9.72573","none","1"
"323277386570079","3","-0.68846047","-0.6458206","9.742498","none","1"
"323277406487319","3","-0.68846047","-0.6458206","9.72573","none","1"
"323277426415860","3","-0.7052288","-0.6410296","9.7353115","none","1"
"323277446333152","3","-0.6836695","-0.6506115","9.72573","none","1"
"323277466248725","3","-0.68606496","-0.6506115","9.754476","none","1"
"323277486166017","3","-0.6956469","-0.6506115","9.72573","none","1"
"323277506081121","3","-0.6980424","-0.6482161","9.740103","none","1"
"323277525998412","3","-0.6908559","-0.66258895","9.742498","none","1"
"323277545920079","3","-0.6980424","-0.65779805","9.723335","none","1"
"323277565837423","3","-0.68846047","-0.65540254","9.730521","none","1"
"323277585756902","3","-0.68127406","-0.6482161","9.740103","none","1"
"323277605674194","3","-0.69325143","-0.6458206","9.730521","none","1"
"323277625571329","3","-0.6980424","-0.6482161","9.720939","none","1"
"323277645488621","3","-0.70043784","-0.65300703","9.742498","none","1"
"323277665410652","3","-0.6836695","-0.65540254","9.754476","none","1"
"323277685328100","3","-0.6908559","-0.65779805","9.7353115","none","1"
"323277705254871","3","-0.68846047","-0.66258895","9.7353115","none","1"
"323277725172267","3","-0.68606496","-0.65300703","9.744894","none","1"
"323277745070652","3","-0.68127406","-0.6458206","9.7353115","none","1"
"323277764988048","3","-0.6908559","-0.6314477","9.713753","none","1"
"323277784919871","3","-0.7052288","-0.6458206","9.744894","none","1"
"323277804837319","3","-0.6980424","-0.6410296","9.744894","none","1"
"323277824753673","3","-0.68606496","-0.6434251","9.72573","none","1"
"323277844671069","3","-0.6980424","-0.6410296","9.749685","none","1"
"323277864583308","3","-0.70283335","-0.6386341","9.749685","none","1"
"323277884500704","3","-0.7052288","-0.6506115","9.730521","none","1"
"323277904427787","3","-0.68846047","-0.6410296","9.740103","none","1"
"323277924345183","3","-0.70283335","-0.6482161","9.730521","none","1"
"323277944263100","3","-0.6908559","-0.65779805","9.742498","none","1"
"323277964180496","3","-0.6956469","-0.6482161","9.742498","none","1"
"323277984092579","3","-0.68127406","-0.6458206","9.713753","none","1"
"323278004009975","3","-0.70043784","-0.6506115","9.740103","none","1"
"323278023938256","3","-0.70043784","-0.6482161","9.737708","none","1"
"323278043855652","3","-0.6908559","-0.6482161","9.730521","none","1"
"323278063761746","3","-0.6980424","-0.6434251","9.716147","none","1"
"323278083679142","3","-0.70043784","-0.6410296","9.749685","none","1"
"323278103599506","3","-0.6908559","-0.6386341","9.744894","none","1"
"323278123516954","3","-0.67887855","-0.61707485","9.75208","none","1"
"323278143444246","3","-0.7076243","-0.6362387","9.74729","none","1"
"323278163361642","3","-0.68606496","-0.6290523","9.744894","none","1"
"323278183271173","3","-0.6836695","-0.6338432","9.754476","none","1"
"323278203188621","3","-0.6980424","-0.6386341","9.723335","none","1"
"323278223105339","3","-0.6908559","-0.6290523","9.720939","none","1"
"323278243022735","3","-0.69325143","-0.6410296","9.737708","none","1"
"323278262933933","3","-0.6956469","-0.6482161","9.720939","none","1"
"323278282851329","3","-0.6980424","-0.6482161","9.713753","none","1"
"323278302759142","3","-0.6956469","-0.65300703","9.744894","none","1"
"323278322676537","3","-0.6980424","-0.6362387","9.740103","none","1"
"323278342599298","3","-0.7076243","-0.6290523","9.740103","none","1"
"323278362516694","3","-0.6980424","-0.6434251","9.723335","none","1"
"323278382433464","3","-0.70043784","-0.6458206","9.744894","none","1"
"323278402350860","3","-0.68127406","-0.65540254","9.740103","none","1"
"323278422261642","3","-0.68127406","-0.6482161","9.740103","none","1"
"323278442179037","3","-0.69325143","-0.6314477","9.756871","none","1"
"323278462094506","3","-0.70283335","-0.6506115","9.740103","none","1"
"323278482011902","3","-0.6980424","-0.66019344","9.754476","none","1"
"323278501927371","3","-0.71001977","-0.6458206","9.742498","none","1"
"323278521844767","3","-0.6956469","-0.65300703","9.732917","none","1"
"323278541759506","3","-0.67648304","-0.6362387","9.742498","none","1"
"323278561676902","3","-0.6836695","-0.6506115","9.744894","sit down","1"
"323278581614871","3","-0.67887855","-0.6506115","9.74729","sit down","1"
"323278601532267","3","-0.68606496","-0.6506115","9.740103","sit down","1"
"323278621448412","3","-0.6908559","-0.6410296","9.740103","sit down","1"
"323278641365808","3","-0.7052288","-0.6482161","9.7353115","sit down","1"
"323278661248881","3","-0.6956469","-0.65300703","9.72573","sit down","1"
"323278681166277","3","-0.69325143","-0.6458206","9.754476","sit down","1"
"323278701107110","3","-0.69325143","-0.6338432","9.749685","sit down","1"
"323278721024506","3","-0.68606496","-0.6458206","9.740103","sit down","1"
"323278740908933","3","-0.67648304","-0.6434251","9.713753","sit down","1"
"323278760826329","3","-0.68846047","-0.6362387","9.740103","sit down","1"
"323278780742892","3","-0.6980424","-0.6314477","9.7353115","sit down","1"
"323278800660287","3","-0.70043784","-0.65540254","9.723335","sit down","1"
"323278820606017","3","-0.6908559","-0.6458206","9.72573","sit down","1"
"323278840523412","3","-0.6956469","-0.6434251","9.716147","sit down","1"
"323278860409714","3","-0.6980424","-0.6482161","9.742498","sit down","1"
"323278880327110","3","-0.69325143","-0.6434251","9.75208","sit down","1"
"323278900242579","3","-0.68127406","-0.6482161","9.72573","sit down","1"
"323278920159975","3","-0.68846047","-0.6482161","9.740103","sit down","1"
"323278940096277","3","-0.6836695","-0.65540254","9.730521","sit down","1"
"323278960013673","3","-0.7076243","-0.6410296","9.713753","sit down","1"
"323278979906537","3","-0.70043784","-0.6410296","9.72573","sit down","1"
"323278999823933","3","-0.6836695","-0.6458206","9.732917","sit down","1"
"323279019769142","3","-0.67887855","-0.6506115","9.7089615","sit down","1"
"323279039686537","3","-0.69325143","-0.6434251","9.744894","sit down","1"
"323279059600235","3","-0.7076243","-0.6410296","9.737708","sit down","1"
"323279079517631","3","-0.6980424","-0.6386341","9.737708","sit down","1"
"323279099409558","3","-0.68846047","-0.66019344","9.704171","sit down","1"
"323279119326902","3","-0.67887855","-0.6482161","9.730521","sit down","1"
"323279139243517","3","-0.7076243","-0.6410296","9.749685","sit down","1"
"323279159160912","3","-0.6836695","-0.6338432","9.740103","sit down","1"
"323279179108881","3","-0.6956469","-0.6482161","9.723335","sit down","1"
"323279199026277","3","-0.6908559","-0.6386341","9.732917","sit down","1"
"323279218942839","3","-0.68846047","-0.6362387","9.740103","sit down","1"
"323279238860235","3","-0.6956469","-0.6434251","9.737708","sit down","1"
"323279258739454","3","-0.6956469","-0.6506115","9.728126","sit down","1"
"323279278656850","3","-0.7052288","-0.6434251","9.754476","sit down","1"
"323279298599975","3","-0.70043784","-0.6482161","9.754476","sit down","1"
"323279318517371","3","-0.71001977","-0.65300703","9.7353115","sit down","1"
"323279338396485","3","-0.6956469","-0.65779805","9.7089615","sit down","1"
"323279358313881","3","-0.67169213","-0.6386341","9.728126","sit down","1"
"323279378230027","3","-0.6621102","-0.6482161","9.723335","sit down","1"
"323279398147423","3","-0.70283335","-0.6410296","9.720939","sit down","1"
"323279418092006","3","-0.7148107","-0.6290523","9.723335","sit down","1"
"323279438009402","3","-0.70043784","-0.6290523","9.744894","sit down","1"
"323279457921642","3","-0.68846047","-0.6410296","9.744894","sit down","1"
"323279477838985","3","-0.70043784","-0.6506115","9.720939","sit down","1"
"323279497718569","3","-0.7052288","-0.6458206","9.72573","sit down","1"
"323279517635964","3","-0.6908559","-0.6434251","9.720939","sit down","1"
"323279537573256","3","-0.7483474","-0.6386341","9.740103","sit down","1"
"323279557490652","3","-0.7267881","-0.6410296","9.764058","sit down","1"
"323279577380027","3","-0.68846047","-0.6314477","9.694589","sit down","1"
"323279597297423","3","-0.68606496","-0.65540254","9.72573","sit down","1"
"323279617212110","3","-0.6692966","-0.6314477","9.74729","sit down","1"
"323279637129506","3","-0.67887855","-0.62426126","9.749685","sit down","1"
"323279657066069","3","-0.70043784","-0.65779805","9.718544","sit down","1"
"323279676983464","3","-0.6908559","-0.66258895","9.701775","sit down","1"
"323279696902110","3","-0.6501328","-0.6290523","9.728126","sit down","1"
"323279716819506","3","-0.7076243","-0.6506115","9.75208","sit down","1"
"323279736743308","3","-0.68846047","-0.6482161","9.713753","sit down","1"
"323279756660339","3","-0.68606496","-0.6386341","9.701775","sit down","1"
"323279776573464","3","-0.7124152","-0.6290523","9.7353115","sit down","1"
"323279796490548","3","-0.61180514","-0.6506115","9.7353115","sit down","1"
"323279816377267","3","-0.6908559","-0.65779805","9.7089615","sit down","1"
"323279836294402","3","-0.6740876","-0.6362387","9.730521","sit down","1"
"323279856240183","3","-0.72199714","-0.6386341","9.716147","sit down","1"
"323279876157319","3","-0.73637","-0.61947036","9.720939","sit down","1"
"323279896076329","3","-0.68846047","-0.6314477","9.701775","sit down","1"
"323279915993464","3","-0.73637","-0.65779805","9.730521","sit down","1"
"323279935907787","3","-0.73876554","-0.6458206","9.744894","sit down","1"
"323279955824923","3","-0.72199714","-0.6386341","9.685007","sit down","1"
"323279975744194","3","-0.68846047","-0.6410296","9.6562605","sit down","1"
"323279995661329","3","-0.6908559","-0.6745664","9.687403","sit down","1"
"323280015575131","3","-0.70043784","-0.6410296","9.730521","sit down","1"
"323280035492267","3","-0.6908559","-0.6410296","9.716147","sit down","1"
"323280055398308","3","-0.6501328","-0.6721709","9.6562605","sit down","1"
"323280075315444","3","-0.626178","-0.6721709","9.608352","sit down","1"
"323280095236225","3","-0.6165961","-0.6961256","9.639493","sit down","1"
"323280115153360","3","-0.6453419","-0.65779805","9.780826","sit down","1"
"323280135070183","3","-0.7291836","-0.66498446","9.75208","sit down","1"
"323280154987319","3","-0.7651158","-0.6841483","9.653866","sit down","1"
"323280174907527","3","-0.59743226","-0.70091665","9.819154","sit down","1"
"323280194824662","3","-0.5638956","-0.7152896","9.852691","sit down","1"
"323280214733933","3","-0.6621102","-0.6937301","9.766453","sit down","1"
"323280234651069","3","-0.82500273","-0.74643064","9.6562605","sit down","1"
"323280254566589","3","-0.89926255","-0.70570755","9.395154","sit down","1"
"323280274483725","3","-1.1172512","-0.5907246","9.392759","sit down","1"
"323280294403673","3","-1.2633753","-0.5955156","9.768848","sit down","1"
"323280314320808","3","-1.136415","-0.6793574","10.137753","sit down","1"
"323280334207839","3","-1.0837145","-0.7344533","10.032351","sit down","1"
"323280354132839","3","-1.0789235","-0.7224759","9.852691","sit down","1"
"323280374049871","3","-1.0190365","-0.7272669","9.835922","sit down","1"
"323280393952944","3","-1.0190365","-0.7200804","9.807176","sit down","1"
"323280413870079","3","-1.0190365","-0.6817528","9.728126","sit down","1"
"323280433816694","3","-0.9567541","-0.66498446","9.639493","sit down","1"
"323280453733777","3","-0.89926255","-0.6793574","9.658657","sit down","1"
"323280473615652","3","-0.846562","-0.70570755","9.696984","sit down","1"
"323280493532787","3","-0.8393756","-0.7152896","9.668239","sit down","1"
"323280513479142","3","-0.84895754","-0.7104986","9.692194","sit down","1"
"323280533396225","3","-0.84177107","-0.70570755","9.685007","sit down","1"
"323280553306537","3","-0.8441666","-0.6865438","9.668239","sit down","1"
"323280573223673","3","-0.8441666","-0.6793574","9.689797","sit down","1"
"323280593113621","3","-0.851353","-0.6889392","9.689797","sit down","1"
"323280613030704","3","-0.85614395","-0.6961256","9.670634","sit down","1"
"323280632944871","3","-0.89926255","-0.69852114","9.668239","sit down","1"
"323280652861954","3","-0.9256128","-0.70091665","9.740103","sit down","1"
"323280672805912","3","-0.94477665","-0.6745664","9.79999","sit down","1"
"323280692722996","3","-0.9399857","-0.6817528","9.75208","sit down","1"
"323280712606225","3","-0.98310435","-0.6937301","9.685007","sit down","1"
"323280732523308","3","-1.016641","-0.6865438","9.6562605","sit down","1"
"323280752439767","3","-1.0549687","-0.7104986","9.718544","sit down","1"
"323280772356902","3","-1.0885054","-0.70810306","9.778431","sit down","1"
"323280792302267","3","-1.1076692","-0.6937301","9.740103","sit down","1"
"323280812219402","3","-1.0932963","-0.6961256","9.7089615","sit down","1"
"323280832101121","3","-1.076528","-0.6865438","9.716147","sit down","1"
"323280852018204","3","-1.0525732","-0.6961256","9.780826","sit down","1"
"323280871934975","3","-1.0334094","-0.70570755","9.785617","sit down","1"
"323280891852110","3","-1.0286185","-0.6913347","9.730521","sit down","1"
"323280911786589","3","-1.0214319","-0.6937301","9.713753","sit down","1"
"323280931703673","3","-1.0214319","-0.6889392","9.701775","sit down","1"
"323280951595756","3","-1.0046636","-0.6865438","9.728126","sit down","1"
"323280971512892","3","-0.98789525","-0.6865438","9.716147","sit down","1"
"323280991458152","3","-0.95914954","-0.6817528","9.675425","sit down","1"
"323281011375235","3","-0.9543586","-0.6913347","9.675425","sit down","1"
"323281031283256","3","-0.95914954","-0.6865438","9.704171","sit down","1"
"323281051200339","3","-0.9974772","-0.6817528","9.723335","sit down","1"
"323281071080652","3","-0.98310435","-0.6817528","9.692194","sit down","1"
"323281090997787","3","-0.98310435","-0.6937301","9.685007","sit down","1"
"323281110904402","3","-0.9998727","-0.6889392","9.69938","sit down","1"
"323281130821485","3","-0.98310435","-0.6793574","9.711357","sit down","1"
"323281150753204","3","-1.0046636","-0.6937301","9.682611","sit down","1"
"323281170670287","3","-1.0238274","-0.6793574","9.687403","sit down","1"
"323281190594402","3","-1.026223","-0.6865438","9.728126","sit down","1"
"323281210511433","3","-1.0477822","-0.6841483","9.7089615","sit down","1"
"323281230386277","3","-1.0358049","-0.6865438","9.694589","sit down","1"
"323281250303360","3","-1.0501777","-0.6889392","9.718544","sit down","1"
"323281270249819","3","-1.0477822","-0.6793574","9.728126","sit down","1"
"323281290166954","3","-1.0334094","-0.6769619","9.72573","sit down","1"
"323281310043673","3","-1.0525732","-0.6865438","9.723335","sit down","1"
"323281329960808","3","-1.0358049","-0.6769619","9.74729","sit down","1"
"323281349871069","3","-1.0238274","-0.6769619","9.723335","sit down","1"
"323281369788152","3","-1.016641","-0.6889392","9.728126","sit down","1"
"323281389733412","3","-1.0142455","-0.6865438","9.696984","sit down","1"
"323281409650183","3","-1.0118501","-0.6793574","9.72573","sit down","1"
"323281429525808","3","-1.016641","-0.6817528","9.732917","sit down","1"
"323281449442579","3","-1.0094546","-0.6841483","9.689797","sit down","1"
"323281469352527","3","-1.026223","-0.6937301","9.665843","sit down","1"
"323281489269298","3","-1.0286185","-0.6817528","9.706566","sit down","1"
"323281509181589","3","-1.0190365","-0.6841483","9.692194","sit down","1"
"323281529098412","3","-1.0238274","-0.6793574","9.704171","sit down","1"
"323281549046017","3","-1.026223","-0.70091665","9.7089615","sit down","1"
"323281568962787","3","-1.016641","-0.6889392","9.692194","sit down","1"
"323281588875912","3","-1.026223","-0.6841483","9.69938","sit down","1"
"323281608792683","3","-1.026223","-0.6913347","9.718544","sit down","1"
"323281628706589","3","-1.031014","-0.6817528","9.716147","sit down","1"
"323281648601017","3","-1.026223","-0.6841483","9.694589","sit down","1"
"323281668537683","3","-1.0190365","-0.6817528","9.730521","sit down","1"
"323281688454454","3","-1.0214319","-0.6865438","9.737708","sit down","1"
"323281708372058","3","-1.0142455","-0.6817528","9.69938","sit down","1"
"323281728288829","3","-1.0286185","-0.6865438","9.69938","sit down","1"
"323281748210131","3","-1.0334094","-0.6889392","9.706566","sit down","1"
"323281768126902","3","-1.0286185","-0.6841483","9.7089615","sit down","1"
"323281788042214","3","-1.0190365","-0.6865438","9.694589","sit down","1"
"323281807958985","3","-1.0190365","-0.6841483","9.7089615","sit down","1"
"323281827872631","3","-1.026223","-0.6841483","9.723335","sit down","1"
"323281847789402","3","-1.0286185","-0.6745664","9.742498","sit down","1"
"323281867674714","3","-1.0334094","-0.6865438","9.720939","sit down","1"
"323281887591485","3","-1.0190365","-0.6889392","9.728126","sit down","1"
"323281907503048","3","-1.0142455","-0.6745664","9.7089615","sit down","1"
"323281927419819","3","-1.0382004","-0.6865438","9.704171","sit down","1"
"323281947352423","3","-1.0286185","-0.6841483","9.706566","sit down","1"
"323281967269194","3","-1.0286185","-0.6793574","9.718544","sit down","1"
"323281987161381","3","-1.026223","-0.6817528","9.711357","sit down","1"
"323282007078152","3","-1.026223","-0.6817528","9.692194","sit down","1"
"323282026999506","3","-1.0358049","-0.6841483","9.685007","sit down","1"
"323282046916277","3","-1.026223","-0.6769619","9.720939","sit down","1"
"323282066856694","3","-1.0238274","-0.66977537","9.728126","sit down","1"
"323282086773464","3","-1.0142455","-0.6745664","9.682611","sit down","1"
"323282106676277","3","-1.0334094","-0.6817528","9.67303","sit down","1"
"323282126593048","3","-1.026223","-0.6889392","9.716147","sit down","1"
"323282146518829","3","-1.0118501","-0.6817528","9.737708","sit down","1"
"323282166435548","3","-1.0070591","-0.6721709","9.713753","sit down","1"
"323282186334923","3","-1.0286185","-0.6865438","9.720939","sit down","1"
"323282206251694","3","-1.0358049","-0.6865438","9.713753","sit down","1"
"323282226173048","3","-1.0382004","-0.6913347","9.716147","sit down","1"
"323282246089767","3","-1.0405958","-0.6865438","9.711357","sit down","1"
"323282265989298","3","-1.0477822","-0.6913347","9.694589","sit down","1"
"323282285906121","3","-1.0429913","-0.6793574","9.716147","sit down","1"
"323282305825079","3","-1.0382004","-0.6913347","9.716147","sit down","1"
"323282325741850","3","-1.0358049","-0.6865438","9.694589","sit down","1"
"323282345662475","3","-1.0286185","-0.6793574","9.67303","sit down","1"
"323282365579246","3","-1.0286185","-0.6793574","9.687403","sit down","1"
"323282385497579","3","-1.026223","-0.6889392","9.704171","sit down","1"
"323282405414350","3","-1.0214319","-0.6865438","9.69938","sit down","1"
"323282425321017","3","-1.0190365","-0.6745664","9.67303","sit down","1"
"323282445237787","3","-1.016641","-0.6889392","9.692194","sit down","1"
"323282465158569","3","-1.0238274","-0.6841483","9.723335","sit down","1"
"323282485075339","3","-1.0118501","-0.6793574","9.716147","sit down","1"
"323282504991173","3","-1.0214319","-0.6793574","9.706566","sit down","1"
"323282524907944","3","-1.031014","-0.6865438","9.72573","sit down","1"
"323282544840808","3","-1.0501777","-0.6961256","9.704171","lay down","1"
"323282564757631","3","-1.031014","-0.6793574","9.701775","lay down","1"
"323282584637162","3","-1.0286185","-0.6841483","9.704171","lay down","1"
"323282604553933","3","-1.0334094","-0.6841483","9.730521","lay down","1"
"323282624470548","3","-1.031014","-0.6889392","9.701775","lay down","1"
"323282644387319","3","-1.0214319","-0.6745664","9.694589","lay down","1"
"323282664319558","3","-1.031014","-0.6745664","9.692194","lay down","1"
"323282684236381","3","-1.0429913","-0.6721709","9.730521","lay down","1"
"323282704131121","3","-1.0286185","-0.6817528","9.723335","lay down","1"
"323282724047579","3","-1.031014","-0.6865438","9.661052","lay down","1"
"323282743990548","3","-1.0405958","-0.6817528","9.701775","lay down","1"
"323282763906954","3","-1.026223","-0.6889392","9.744894","lay down","1"
"323282783823569","3","-1.0214319","-0.6721709","9.7089615","lay down","1"
"323282803739975","3","-1.0358049","-0.66258895","9.694589","lay down","1"
"323282823631381","3","-1.0214319","-0.6841483","9.701775","lay down","1"
"323282843547839","3","-1.026223","-0.70091665","9.7089615","lay down","1"
"323282863490444","3","-1.031014","-0.69852114","9.704171","lay down","1"
"323282883406850","3","-1.0238274","-0.69852114","9.716147","lay down","1"
"323282903327944","3","-1.0789235","-0.6841483","9.687403","lay down","1"
"323282923244402","3","-1.0597596","-0.7152896","9.69938","lay down","1"
"323282943126225","3","-1.0286185","-0.70091665","9.728126","lay down","1"
"323282963042735","3","-1.016641","-0.6865438","9.723335","lay down","1"
"323282982956642","3","-0.95914954","-0.66977537","9.701775","lay down","1"
"323283002873100","3","-0.99508166","-0.6841483","9.7353115","lay down","1"
"323283022798360","3","-1.0693415","-0.6889392","9.74729","lay down","1"
"323283042714819","3","-1.071737","-0.70091665","9.742498","lay down","1"
"323283062618360","3","-1.0453868","-0.6889392","9.768848","lay down","1"
"323283082534819","3","-1.016641","-0.6506115","9.759267","lay down","1"
"323283102479975","3","-1.0118501","-0.65779805","9.6562605","lay down","1"
"323283122396433","3","-1.0477822","-0.73924434","9.536487","lay down","1"
"323283142313048","3","-1.016641","-0.78715396","9.823945","lay down","1"
"323283162229506","3","-1.0621551","-0.6913347","9.955696","lay down","1"
"323283182148152","3","-1.0980873","-0.5595834","9.677821","lay down","1"
"323283202064610","3","-1.0813189","-0.5595834","9.440668","lay down","1"
"323283221980964","3","-1.0286185","-0.5907246","9.591583","lay down","1"
"323283241897423","3","-0.94717216","-0.602702","9.790408","lay down","1"
"323283261812527","3","-0.9759179","-0.6793574","9.730521","lay down","1"
"323283281728985","3","-1.0094546","-0.6745664","9.730521","lay down","1"
"323283301644454","3","-0.92321736","-0.5691652","9.891018","lay down","1"
"323283321560912","3","-0.9280083","-0.61467934","9.807176","lay down","1"
"323283341473673","3","-1.0597596","-0.6434251","9.57242","lay down","1"
"323283361390131","3","-1.1627653","-0.5931201","9.615538","lay down","1"
"323283381300652","3","-1.0861099","-0.62186587","9.771244","lay down","1"
"323283401217110","3","-0.98789525","-0.6793574","9.823945","lay down","1"
"323283421139402","3","-1.071737","-0.74163973","9.65147","lay down","1"
"323283441055860","3","-1.0813189","-0.5907246","9.622725","lay down","1"
"323283460966589","3","-1.1028782","-0.49490544","9.62512","lay down","1"
"323283480883048","3","-1.1052737","-0.61467934","9.687403","lay down","1"
"323283500794871","3","-1.1412059","-0.6961256","9.756871","lay down","1"
"323283520711277","3","-1.2753527","-0.7152896","9.67303","lay down","1"
"323283540601485","3","-1.1939064","-0.6961256","9.608352","lay down","1"
"323283560517892","3","-0.9711269","-0.66498446","9.855085","lay down","1"
"323283580456642","3","-1.0837145","-0.65300703","9.960486","lay down","1"
"323283600373048","3","-1.1699517","-0.6410296","9.764058","lay down","1"
"323283620292839","3","-1.1388104","-0.70331216","9.57721","lay down","1"
"323283640209298","3","-1.1675562","-0.6745664","9.6562605","lay down","1"
"323283660116589","3","-1.2106748","-0.6314477","9.704171","lay down","1"
"323283680033100","3","-1.1627653","-0.62186587","9.685007","lay down","1"
"323283699945808","3","-1.0525732","-0.6314477","9.723335","lay down","1"
"323283719862319","3","-1.0286185","-0.6338432","9.797595","lay down","1"
"323283739775964","3","-1.1819291","-0.6458206","9.706566","lay down","1"
"323283759692423","3","-1.1340195","-0.52125573","9.617934","lay down","1"
"323283779619350","3","-0.76032484","-0.4493914","9.663447","lay down","1"
"323283799535860","3","-0.7483474","-0.54281497","9.790408","lay down","1"
"323283819414506","3","-1.0429913","-0.5500015","9.888623","lay down","1"
"323283839330964","3","-1.0885054","-0.53323317","9.833527","lay down","1"
"323283859262006","3","-1.0046636","-0.53562856","9.728126","lay down","1"
"323283879178464","3","-1.1436014","-0.5188602","9.661052","lay down","1"
"323283899061850","3","-1.402313","-0.53562856","9.478996","lay down","1"
"323283918978308","3","-1.5340643","-0.5571879","9.34964","lay down","1"
"323283938920444","3","-1.4047086","-0.60988843","9.526905","lay down","1"
"323283958836902","3","-1.2106748","-0.5883291","9.718544","lay down","1"
"323283978751537","3","-1.2154658","-0.4302275","9.613143","lay down","1"
"323283998667996","3","-1.237025","-0.35357222","9.507742","lay down","1"
"323284018585756","3","-1.1651607","-0.47574165","9.60356","lay down","1"
"323284038502214","3","-1.1795335","-0.6410296","9.754476","lay down","1"
"323284058419454","3","-1.4262679","-0.66258895","9.689797","lay down","1"
"323284078335912","3","-1.5987422","-0.6338432","9.591583","lay down","1"
"323284098219506","3","-1.4837593","-0.6434251","9.792804","lay down","1"
"323284118135964","3","-1.4406407","-0.73924434","10.02277","lay down","1"
"323284138079558","3","-1.5795784","-0.84464526","9.917368","lay down","1"
"323284157996017","3","-1.5412508","-0.87818205","9.828736","lay down","1"
"323284177909558","3","-1.5172961","-0.8135042","9.819154","lay down","1"
"323284197826017","3","-1.4693866","-0.70570755","9.831131","lay down","1"
"323284217709819","3","-1.306494","-0.6745664","9.723335","lay down","1"
"323284237626277","3","-1.2753527","-0.5883291","9.565233","lay down","1"
"323284257571798","3","-1.0980873","-0.48292807","9.462228","lay down","1"
"323284277488256","3","-1.0382004","-0.53083766","9.512533","lay down","1"
"323284297375183","3","-1.1292286","-0.5116738","9.452646","lay down","1"
"323284317291694","3","-1.0956918","-0.4996964","9.536487","lay down","1"
"323284337225600","3","-1.0741324","-0.5619788","9.665843","lay down","1"
"323284357142058","3","-1.0382004","-0.60988843","9.771244","lay down","1"
"323284377033881","3","-1.1603698","-0.6266568","9.701775","lay down","1"
"323284396950339","3","-1.1100647","-0.5955156","9.663447","lay down","1"
"323284416897735","3","-1.1675562","-0.66737986","9.704171","lay down","1"
"323284436814142","3","-1.2801437","-0.6937301","9.718544","lay down","1"
"323284456727683","3","-1.2705617","-0.6721709","9.665843","lay down","1"
"323284476644142","3","-1.2202567","-0.6793574","9.692194","lay down","1"
"323284496521902","3","-1.3208668","-0.7200804","9.843109","lay down","1"
"323284516438412","3","-1.3544035","-0.70091665","9.864668","lay down","1"
"323284536354923","3","-1.3208668","-0.6769619","9.694589","lay down","1"
"323284556271381","3","-1.3591944","-0.65779805","9.641888","lay down","1"
"323284576204089","3","-1.4430362","-0.6434251","9.69938","lay down","1"
"323284596120339","3","-1.4645956","-0.6290523","9.668239","lay down","1"
"323284616040444","3","-1.3855448","-0.65540254","9.617934","lay down","1"
"323284635956694","3","-1.2849346","-0.6889392","9.682611","lay down","1"
"323284655843829","3","-1.2058839","-0.6889392","9.72573","lay down","1"
"323284675760079","3","-1.1819291","-0.66737986","9.7089615","lay down","1"
"323284695708777","3","-1.2274431","-0.65779805","9.682611","lay down","1"
"323284715625027","3","-1.2537935","-0.6386341","9.661052","lay down","1"
"323284735543464","3","-1.2609799","-0.62426126","9.689797","lay down","1"
"323284755459714","3","-1.2657708","-0.65779805","9.754476","lay down","1"
"323284775352527","3","-1.3280532","-0.6721709","9.77364","lay down","1"
"323284795268777","3","-1.3687763","-0.6314477","9.720939","lay down","1"
"323284815201485","3","-1.3352396","-0.6290523","9.696984","lay down","1"
"323284835117735","3","-1.3256577","-0.61707485","9.716147","lay down","1"
"323284855000496","3","-1.352008","-0.5955156","9.668239","lay down","1"
"323284874916746","3","-1.4094994","-0.5835382","9.613143","lay down","1"
"323284894829142","3","-1.4813639","-0.52365124","9.732917","lay down","1"
"323284914745392","3","-1.4598045","-0.48532352","9.811967","lay down","1"
"323284934671746","3","-1.4502226","-0.6290523","9.833527","lay down","1"
"323284954587996","3","-1.4047086","-0.7751764","9.7880125","lay down","1"
"323284974509246","3","-1.3663809","-0.8135042","9.620329","lay down","1"
"323284994425496","3","-1.3855448","-0.6865438","9.5173235","lay down","1"
"323285014329454","3","-1.4981322","-0.4278321","9.567629","lay down","1"
"323285034245704","3","-1.7640303","-0.322431","9.862272","lay down","1"
"323285054195183","3","-1.7592393","-0.6122838","10.010792","lay down","1"
"323285074111433","3","-1.4957367","-0.7799674","9.500555","lay down","1"
"323285093989142","3","-1.3184713","-0.6889392","9.387968","lay down","1"
"323285113905392","3","-1.2801437","-0.6074929","9.756871","lay down","1"
"323285133856433","3","-1.2993075","-0.66498446","9.859877","lay down","1"
"323285153772683","3","-1.3208668","-0.6913347","9.663447","lay down","1"
"323285173678777","3","-1.2993075","-0.6889392","9.546069","lay down","1"
"323285193595027","3","-1.2993075","-0.70091665","9.562838","lay down","1"
"323285213480860","3","-1.3304486","-0.69852114","9.62512","lay down","1"
"323285233397110","3","-1.3232622","-0.65779805","9.65147","lay down","1"
"323285253310860","3","-1.3112848","-0.5859337","9.582001","lay down","1"
"323285273227110","3","-1.3400307","-0.57635164","9.589188","lay down","1"
"323285293172787","3","-1.3639854","-0.6074929","9.67303","lay down","1"
"323285313089037","3","-1.4166859","-0.6122838","9.7089615","lay down","1"
"323285332973777","3","-1.4861548","-0.5955156","9.723335","lay down","1"
"323285352890027","3","-1.512505","-0.61707485","9.795198","lay down","1"
"323285372831798","3","-1.5196915","-0.62186587","9.850295","lay down","1"
"323285392748048","3","-1.5053186","-0.6506115","9.778431","lay down","1"
"323285412648204","3","-1.4693866","-0.66019344","9.704171","lay down","1"
"323285432564454","3","-1.4286633","-0.65540254","9.677821","lay down","1"
"323285452455964","3","-1.3879402","-0.61707485","9.649075","lay down","1"
"323285472372214","3","-1.3687763","-0.6314477","9.639493","lay down","1"
"323285492319714","3","-1.3496125","-0.61947036","9.62512","lay down","1"
"323285512235964","3","-1.3424261","-0.61947036","9.613143","lay down","1"
"323285532149662","3","-1.3496125","-0.6122838","9.641888","lay down","1"
"323285552065912","3","-1.371172","-0.602702","9.653866","lay down","1"
"323285571980964","3","-1.3783584","-0.61707485","9.665843","lay down","1"
"323285591897214","3","-1.3975221","-0.6314477","9.67303","lay down","1"
"323285611808933","3","-1.4286633","-0.6362387","9.682611","lay down","1"
"323285631725079","3","-1.411895","-0.6386341","9.713753","lay down","1"
"323285651639975","3","-1.4190814","-0.65540254","9.720939","lay down","1"
"323285671556069","3","-1.4166859","-0.65540254","9.728126","lay down","1"
"323285691474454","3","-1.4047086","-0.65779805","9.732917","lay down","1"
"323285711390600","3","-1.4047086","-0.6506115","9.730521","lay down","1"
"323285731308204","3","-1.3975221","-0.6482161","9.687403","lay down","1"
"323285751224350","3","-1.4238724","-0.6362387","9.67303","lay down","1"
"323285771113725","3","-1.411895","-0.6122838","9.696984","lay down","1"
"323285791029819","3","-1.402313","-0.61707485","9.677821","lay down","1"
"323285810967267","3","-1.3975221","-0.60988843","9.644284","lay down","1"
"323285830883412","3","-1.3951266","-0.6314477","9.62991","lay down","1"
"323285850802423","3","-1.402313","-0.6266568","9.637098","lay down","1"
"323285870718569","3","-1.407104","-0.6314477","9.670634","lay down","1"
"323285890603256","3","-1.3999176","-0.62426126","9.65147","lay down","1"
"323285910519350","3","-1.4142904","-0.6314477","9.668239","lay down","1"
"323285930464767","3","-1.4190814","-0.6482161","9.69938","lay down","1"
"323285950380912","3","-1.4190814","-0.6458206","9.720939","lay down","1"
"323285970284819","3","-1.4166859","-0.6506115","9.704171","lay down","1"
"323285990200912","3","-1.4047086","-0.6458206","9.670634","lay down","1"
"323286010093464","3","-1.402313","-0.6338432","9.69938","lay down","1"
"323286030009558","3","-1.4047086","-0.6314477","9.7089615","lay down","1"
"323286049927162","3","-1.3927312","-0.6290523","9.694589","lay down","1"
"323286069843256","3","-1.3855448","-0.6290523","9.682611","lay down","1"
"323286089761902","3","-1.402313","-0.62186587","9.6562605","lay down","1"
"323286109677996","3","-1.3975221","-0.6290523","9.661052","lay down","1"
"323286129601017","3","-1.4094994","-0.6074929","9.680216","lay down","1"
"323286149517110","3","-1.3831493","-0.60988843","9.639493","lay down","1"
"323286169445027","3","-1.3999176","-0.6338432","9.663447","lay down","1"
"323286189361173","3","-1.4190814","-0.6386341","9.680216","lay down","1"
"323286209248204","3","-1.411895","-0.6338432","9.668239","lay down","1"
"323286229164298","3","-1.407104","-0.6314477","9.692194","lay down","1"
"323286249100964","3","-1.411895","-0.6362387","9.706566","lay down","1"
"323286269017110","3","-1.407104","-0.6482161","9.701775","lay down","1"
"323286288930392","3","-1.4286633","-0.6314477","9.7089615","lay down","1"
"323286308846485","3","-1.4047086","-0.6434251","9.687403","lay down","1"
"323286328755183","3","-1.402313","-0.6314477","9.6562605","lay down","1"
"323286348671225","3","-1.3975221","-0.6314477","9.675425","lay down","1"
"323286368607110","3","-1.3951266","-0.6290523","9.685007","lay down","1"
"323286388510183","3","-1.3951266","-0.62186587","9.665843","lay down","1"
"323286408426225","3","-1.402313","-0.6266568","9.687403","lay down","1"
"323286428327579","3","-1.3927312","-0.62186587","9.685007","lay down","1"
"323286448243725","3","-1.3879402","-0.6362387","9.675425","lay down","1"
"323286468175756","3","-1.407104","-0.61947036","9.67303","lay down","1"
"323286488091902","3","-1.402313","-0.61467934","9.689797","lay down","1"
"323286508008152","3","-1.411895","-0.6338432","9.685007","lay down","1"
"323286527924298","3","-1.411895","-0.62186587","9.670634","lay down","1"
"323286547822267","3","-1.4047086","-0.62426126","9.687403","sit up","1"
"323286567738360","3","-1.4047086","-0.6386341","9.663447","sit up","1"
"323286587651798","3","-1.4094994","-0.6314477","9.706566","sit up","1"
"323286607567892","3","-1.407104","-0.6266568","9.689797","sit up","1"
"323286627483933","3","-1.407104","-0.6338432","9.675425","sit up","1"
"323286647400027","3","-1.3855448","-0.6338432","9.694589","sit up","1"
"323286667350496","3","-1.4047086","-0.6386341","9.696984","sit up","1"
"323286687266642","3","-1.3975221","-0.6338432","9.658657","sit up","1"
"323286707169298","3","-1.402313","-0.6362387","9.653866","sit up","1"
"323286727085392","3","-1.3999176","-0.62426126","9.649075","sit up","1"
"323286746973256","3","-1.407104","-0.6266568","9.67303","sit up","1"
"323286766889350","3","-1.3903357","-0.61947036","9.694589","sit up","1"
"323286786836121","3","-1.4094994","-0.6266568","9.69938","sit up","1"
"323286806752214","3","-1.4166859","-0.6362387","9.653866","sit up","1"
"323286826639142","3","-1.4142904","-0.6506115","9.711357","sit up","1"
"323286846555235","3","-1.407104","-0.6338432","9.692194","sit up","1"
"323286866472527","3","-1.4047086","-0.61707485","9.670634","sit up","1"
"323286886388621","3","-1.4166859","-0.61467934","9.682611","sit up","1"
"323286906340131","3","-1.4166859","-0.62426126","9.675425","sit up","1"
"323286926256225","3","-1.3855448","-0.6386341","9.67303","sit up","1"
"323286946143308","3","-1.3687763","-0.6434251","9.687403","sit up","1"
"323286966059402","3","-1.3975221","-0.6434251","9.668239","sit up","1"
"323286985979089","3","-1.4238724","-0.61947036","9.622725","sit up","1"
"323287005895183","3","-1.407104","-0.6122838","9.622725","sit up","1"
"323287025832058","3","-1.4286633","-0.6434251","9.637098","sit up","1"
"323287045748152","3","-1.402313","-0.6769619","9.689797","sit up","1"
"323287065645079","3","-1.3639854","-0.65540254","9.634702","sit up","1"
"323287085561173","3","-1.3687763","-0.6458206","9.526905","sit up","1"
"323287105473412","3","-1.4238724","-0.6913347","9.4646225","sit up","1"
"323287125389506","3","-1.5244825","-0.61467934","9.526905","sit up","1"
"323287145305287","3","-1.5532281","-0.52365124","9.634702","sit up","1"
"323287165221381","3","-1.4741774","-0.61947036","9.807176","sit up","1"
"323287185164089","3","-1.4286633","-0.66977537","9.867063","sit up","1"
"323287205080235","3","-1.4166859","-0.6889392","9.740103","sit up","1"
"323287224964350","3","-1.4214768","-0.7128941","9.69938","sit up","1"
"323287244880444","3","-1.577183","-0.5955156","9.685007","sit up","1"
"323287264830548","3","-1.6801885","-0.61467934","9.706566","sit up","1"
"323287284746694","3","-1.6873751","-0.73684883","9.816758","sit up","1"
"323287304660444","3","-1.6107197","-0.83506346","9.754476","sit up","1"
"323287324546173","3","-1.5819739","-0.88057756","9.65147","sit up","1"
"323287344462267","3","-1.6945615","-0.7560127","9.500555","sit up","1"
"323287364378412","3","-1.6969569","-0.60988843","9.5173235","sit up","1"
"323287384294506","3","-1.5340643","-0.6865438","9.7353115","sit up","1"
"323287404236537","3","-1.5556237","-0.70331216","9.632307","sit up","1"
"323287424152631","3","-1.5747875","-0.6386341","9.447855","sit up","1"
