"Timestamp","Accuracy","Acceleration X","Acceleration Y","Acceleration Z","Label","Cycle"
"68629447683568","3","0.09486103","0.1255235","10.45156","none","0"
"68629467549037","3","-0.19738734","-0.31764004","9.198725","none","0"
"68629487302474","3","0.07330167","0.044077218","9.234657","none","0"
"68629507381328","3","0.025392115","-0.0301826","10.271899","none","0"
"68629527286797","3","0.030183077","-0.06132382","9.74729","none","0"
"68629547221849","3","0.013414741","-0.011018783","9.550859","none","0"
"68629567123047","3","0.020601213","-0.025391668","9.881435","none","0"
"68629587028464","3","0.030183077","-0.018205225","9.776035","none","0"
"68629606911172","3","0.022996664","-0.05413738","9.713753","none","0"
"68629626816693","3","0.025392115","-0.03257811","9.761662","none","0"
"68629646746641","3","0.039765","-0.015809774","9.764058","none","0"
"68629666652110","3","0.027787626","-0.039764553","9.780826","none","0"
"68629686556068","3","-0.0033535957","-0.03497356","9.771244","none","0"
"68629706461589","3","0.0014373064","-0.03497356","9.728126","none","0"
"68629726378933","3","0.03736949","-0.025391668","9.75208","none","0"
"68629746284453","3","0.020601213","-0.03257811","9.785617","none","0"
"68629766188933","3","0.03736949","-0.03497356","9.785617","none","0"
"68629786094453","3","0.0349741","-0.037369043","9.780826","none","0"
"68629806000183","3","0.015810192","-0.03497356","9.764058","none","0"
"68629825905651","3","0.0110192895","-0.025391668","9.776035","none","0"
"68629845821953","3","0.025392115","-0.025391668","9.77364","none","0"
"68629865727422","3","0.027787626","-0.022996157","9.783222","none","0"
"68629885622422","3","0.022996664","-0.039764553","9.759267","none","0"
"68629905527943","3","0.0110192895","-0.044555485","9.77364","none","0"
"68629925460287","3","0.015810192","-0.042160004","9.754476","none","0"
"68629945365808","3","0.030183077","-0.027787149","9.776035","none","0"
"68629965287735","3","0.025392115","-0.020600706","9.77364","none","0"
"68629985193255","3","0.015810192","-0.042160004","9.761662","none","0"
"68630005101849","3","0.022996664","-0.044555485","9.766453","none","0"
"68630025007318","3","0.025392115","-0.020600706","9.77364","none","0"
"68630044920808","3","0.022996664","-0.03257811","9.768848","none","0"
"68630064826276","3","0.022996664","-0.027787149","9.749685","none","0"
"68630084724401","3","0.030183077","-0.015809774","9.764058","none","0"
"68630104629870","3","0.027787626","-0.03257811","9.783222","none","0"
"68630124538672","3","0.008623779","-0.027787149","9.768848","none","0"
"68630144444141","3","0.015810192","-0.027787149","9.766453","none","0"
"68630164365808","3","0.022996664","-0.0301826","9.783222","none","0"
"68630184271328","3","0.013414741","-0.0301826","9.756871","none","0"
"68630204188360","3","0.022996664","-0.0301826","9.756871","none","0"
"68630224093828","3","0.025392115","-0.03257811","9.780826","none","0"
"68630243980964","3","0.013414741","-0.03257811","9.766453","none","0"
"68630263886485","3","0.003832817","-0.018205225","9.77364","none","0"
"68630283803047","3","0.020601213","-0.03497356","9.771244","none","0"
"68630303708568","3","0.018205702","-0.03497356","9.783222","none","0"
"68630323620443","3","0.027787626","-0.0301826","9.776035","none","0"
"68630343525912","3","0.027787626","-0.025391668","9.771244","none","0"
"68630363426745","3","0.022996664","-0.039764553","9.766453","none","0"
"68630383332266","3","0.022996664","-0.037369043","9.759267","none","0"
"68630403250651","3","0.030183077","-0.03257811","9.759267","none","0"
"68630423156120","3","0.032578588","-0.022996157","9.7880125","none","0"
"68630443056068","3","0.015810192","-0.03497356","9.780826","none","0"
"68630462961641","3","0.020601213","-0.049346447","9.771244","none","0"
"68630482900443","3","0.027787626","-0.0301826","9.776035","none","0"
"68630502805912","3","0.020601213","-0.03497356","9.776035","none","0"
"68630522683255","3","0.025392115","-0.042160004","9.75208","none","0"
"68630542588724","3","0.015810192","-0.022996157","9.74729","none","0"
"68630562519193","3","0.015810192","-0.025391668","9.77364","none","0"
"68630582424662","3","0.0110192895","-0.03497356","9.778431","none","0"
"68630602330130","3","0.022996664","-0.039764553","9.768848","none","0"
"68630622239974","3","0.015810192","-0.03497356","9.754476","none","0"
"68630642145443","3","0.020601213","-0.0301826","9.756871","none","0"
"68630662064037","3","0.015810192","-0.025391668","9.783222","none","0"
"68630681969505","3","0.018205702","-0.027787149","9.776035","none","0"
"68630701871380","3","0.032578588","-0.0301826","9.768848","none","0"
"68630721776849","3","0.022996664","-0.027787149","9.761662","none","0"
"68630741701589","3","0.025392115","-0.039764553","9.754476","none","0"
"68630761607058","3","0.015810192","-0.0301826","9.780826","none","0"
"68630781479766","3","0.0110192895","-0.027787149","9.771244","none","0"
"68630801385287","3","0.020601213","-0.03257811","9.761662","none","0"
"68630821324818","3","0.022996664","-0.039764553","9.754476","none","0"
"68630841230287","3","0.0110192895","-0.03497356","9.780826","none","0"
"68630861123464","3","0.003832817","-0.0301826","9.77364","none","0"
"68630881028933","3","0.015810192","-0.044555485","9.759267","none","0"
"68630900951589","3","-0.0033535957","-0.020600706","9.776035","none","0"
"68630920857058","3","0.0062283278","9.586215E-4","9.819154","none","0"
"68630940763672","3","0.008623779","-0.03257811","9.728126","none","0"
"68630960669141","3","0.030183077","-0.06371933","9.677821","none","0"
"68630980587630","3","0.046951473","-0.0301826","9.809572","none","0"
"68631000493151","3","0.008623779","-0.006227821","9.847899","none","0"
"68631020401901","3","-0.01533097","-0.03497356","9.72573","none","0"
"68631040307422","3","0.0110192895","-0.044555485","9.77364","none","0"
"68631060202578","3","0.0349741","-0.039764553","9.776035","none","0"
"68631080108151","3","0.03736949","-0.03257811","9.677821","none","0"
"68631100011224","3","0.044555962","-0.022996157","9.783222","none","0"
"68631119916693","3","0.022996664","-0.037369043","9.838318","none","0"
"68631139817735","3","-0.0033535957","-0.03497356","9.74729","none","0"
"68631159723255","3","0.0110192895","-0.03257811","9.742498","none","0"
"68631179646849","3","0.025392115","-0.046950966","9.77364","none","0"
"68631199552370","3","0.039765","-0.051741928","9.742498","none","0"
"68631219473880","3","0.027787626","-0.037369043","9.749685","none","0"
"68631239379349","3","0.0110192895","-0.037369043","9.77364","none","0"
"68631259283933","3","0.015810192","-0.022996157","9.764058","none","0"
"68631279189401","3","0.025392115","-0.049346447","9.761662","none","0"
"68631299111433","3","0.018205702","-0.037369043","9.764058","none","0"
"68631319016901","3","0.032578588","-0.0301826","9.771244","none","0"
"68631338912058","3","0.039765","-0.039764553","9.768848","none","0"
"68631358817526","3","0.020601213","-0.044555485","9.75208","none","0"
"68631378742474","3","0.013414741","-0.039764553","9.754476","none","0"
"68631398647943","3","0.030183077","-0.025391668","9.783222","none","0"
"68631418540912","3","0.051742375","-0.037369043","9.776035","none","0"
"68631438446433","3","0.020601213","-0.037369043","9.761662","none","0"
"68631458376328","3","0.013414741","-0.042160004","9.75208","none","0"
"68631478281849","3","0.0062283278","-0.022996157","9.778431","none","0"
"68631498194089","3","0.020601213","-0.006227821","9.802386","none","0"
"68631518099558","3","0.03736949","-0.042160004","9.740103","none","0"
"68631537991641","3","0.0349741","-0.042160004","9.7353115","none","0"
"68631557897110","3","0.032578588","-0.042160004","9.780826","none","0"
"68631577820078","3","0.032578588","-0.0301826","9.771244","none","0"
"68631597726068","3","0.022996664","-0.042160004","9.764058","none","0"
"68631617634297","3","0.008623779","-0.03497356","9.77364","none","0"
"68631637540235","3","0.027787626","-0.039764553","9.7353115","none","0"
"68631657450547","3","0.015810192","-0.039764553","9.7353115","none","0"
"68631677356537","3","0.022996664","-0.037369043","9.785617","none","0"
"68631697222162","3","0.008623779","-0.027787149","9.77364","none","0"
"68631717128099","3","0.0062283278","-0.05413738","9.764058","none","0"
"68631737099818","3","0.0110192895","-0.037369043","9.761662","none","0"
"68631757005755","3","0.0349741","-0.042160004","9.766453","none","0"
"68631776900651","3","0.039765","-0.0301826","9.749685","none","0"
"68631796806641","3","0.027787626","-0.0301826","9.776035","none","0"
"68631816734662","3","0.013414741","-0.042160004","9.778431","none","0"
"68631836640651","3","0.0062283278","-0.037369043","9.759267","none","0"
"68631856540287","3","0.0349741","-0.03257811","9.749685","none","0"
"68631876446224","3","0.039765","-0.046950966","9.744894","none","0"
"68631896365599","3","0.022996664","-0.022996157","9.790408","none","0"
"68631916271537","3","-0.01293546","-0.020600706","9.802386","none","0"
"68631936169089","3","0.0110192895","-0.027787149","9.771244","none","0"
"68631956075026","3","0.015810192","-0.039764553","9.74729","none","0"
"68631975943255","3","0.027787626","-0.03497356","9.75208","none","0"
"68631995849245","3","0.0349741","-0.03497356","9.766453","none","0"
"68632015827058","3","0.020601213","-0.0301826","9.785617","none","0"
"68632035733047","3","0.0014373064","-0.046950966","9.764058","none","0"
"68632055641641","3","0.0110192895","-0.049346447","9.759267","none","0"
"68632075547578","3","0.032578588","-0.044555485","9.756871","none","0"
"68632095454766","3","0.049346924","-0.03497356","9.776035","none","0"
"68632115360755","3","0.03736949","-0.042160004","9.771244","none","0"
"68632135277058","3","0.0062283278","-0.03497356","9.759267","none","0"
"68632155183047","3","0.008623779","-0.018205225","9.802386","none","0"
"68632175028308","3","0.022996664","-0.027787149","9.778431","none","0"
"68632194934245","3","0.03736949","-0.049346447","9.72573","none","0"
"68632214916537","3","0.03736949","-0.042160004","9.754476","none","0"
"68632234822578","3","0.025392115","-0.011018783","9.82634","none","0"
"68632254693255","3","0.018205702","-0.013414264","9.797595","none","0"
"68632274599193","3","0.018205702","-0.049346447","9.742498","none","0"
"68632294529662","3","0.020601213","-0.046950966","9.771244","none","0"
"68632314435651","3","0.032578588","-0.03497356","9.732917","none","0"
"68632334334505","3","0.049346924","-0.025391668","9.742498","none","0"
"68632354240443","3","0.018205702","-0.022996157","9.802386","none","0"
"68632374160339","3","0.003832817","-0.037369043","9.790408","none","0"
"68632394066328","3","0.008623779","-0.046950966","9.7353115","none","0"
"68632413996172","3","0.0349741","-0.037369043","9.740103","none","0"
"68632433902110","3","0.054137886","-0.020600706","9.79999","none","0"
"68632453802058","3","0.015810192","-0.027787149","9.785617","none","0"
"68632473708047","3","-0.01293546","-0.03497356","9.768848","none","0"
"68632493616797","3","-9.5808506E-4","-0.037369043","9.776035","none","0"
"68632513522787","3","0.039765","-0.0301826","9.737708","none","0"
"68632533420130","3","0.039765","-0.044555485","9.74729","none","0"
"68632553326068","3","0.025392115","-0.03257811","9.797595","none","0"
"68632573238880","3","0.025392115","-0.0301826","9.809572","none","0"
"68632593144818","3","0.015810192","-0.039764553","9.74729","none","0"
"68632613080495","3","0.020601213","-0.03257811","9.764058","none","0"
"68632632987005","3","0.025392115","-0.0301826","9.785617","none","0"
"68632652896068","3","0.030183077","-0.018205225","9.77364","none","0"
"68632672802578","3","0.04216051","-0.037369043","9.768848","none","0"
"68632692698568","3","0.030183077","-0.042160004","9.776035","none","0"
"68632712605183","3","0.0110192895","-0.03497356","9.75208","none","0"
"68632732546485","3","0.030183077","-0.027787149","9.768848","none","0"
"68632752453047","3","0.044555962","-0.015809774","9.776035","none","0"
"68632772351849","3","0.022996664","-0.037369043","9.759267","none","0"
"68632792258360","3","0.013414741","-0.039764553","9.764058","none","0"
"68632812145860","3","0.022996664","-0.0301826","9.759267","none","0"
"68632832052474","3","0.022996664","-0.03497356","9.783222","none","0"
"68632851997318","3","0.025392115","-0.037369043","9.768848","none","0"
"68632871903880","3","0.022996664","-0.03257811","9.764058","none","0"
"68632891812735","3","0.015810192","-0.020600706","9.795198","none","0"
"68632911719297","3","0.013414741","-0.03257811","9.778431","none","0"
"68632931629453","3","0.008623779","-0.049346447","9.740103","none","0"
"68632951536016","3","0.008623779","-0.037369043","9.780826","none","0"
"68632971443308","3","0.003832817","-0.015809774","9.780826","none","0"
"68632991349870","3","0.008623779","-0.039764553","9.761662","none","0"
"68633011252787","3","0.030183077","-0.046950966","9.7880125","none","0"
"68633031159349","3","0.030183077","-0.046950966","9.768848","none","0"
"68633051074870","3","0.020601213","-0.039764553","9.754476","none","0"
"68633070981433","3","0.027787626","-0.022996157","9.780826","none","0"
"68633090838464","3","0.020601213","-0.03257811","9.764058","none","0"
"68633110745026","3","0.0062283278","-0.03257811","9.790408","none","0"
"68633130694870","3","0.003832817","-0.03257811","9.795198","none","0"
"68633150601433","3","0.027787626","-0.027787149","9.756871","none","0"
"68633170510026","3","0.04216051","-0.022996157","9.732917","none","0"
"68633190416589","3","0.04216051","-0.025391668","9.766453","none","0"
"68633210324662","3","0.022996664","-0.037369043","9.797595","none","0"
"68633230231224","3","0.0014373064","-0.03497356","9.749685","none","0"
"68633250144141","3","0.0062283278","-0.03257811","9.761662","none","0"
"68633270050651","3","0.003832817","-0.03257811","9.756871","none","0"
"68633289958880","3","0.020601213","-0.0301826","9.771244","none","0"
"68633309865391","3","0.027787626","-0.025391668","9.771244","none","0"
"68633329778516","3","0.030183077","-0.042160004","9.759267","none","0"
"68633349685078","3","0.0062283278","-0.0301826","9.771244","none","0"
"68633369531380","3","0.020601213","-0.03257811","9.77364","none","0"
"68633389437995","3","0.032578588","-0.027787149","9.768848","none","0"
"68633409403203","3","0.020601213","-0.03257811","9.771244","none","0"
"68633429309766","3","0.013414741","-0.037369043","9.771244","none","0"
"68633449188568","3","0.015810192","-0.037369043","9.776035","sit down","0"
"68633469095130","3","0.015810192","-0.039764553","9.761662","sit down","0"
"68633489017005","3","0.018205702","-0.03257811","9.77364","sit down","0"
"68633508923568","3","0.025392115","-0.03497356","9.766453","sit down","0"
"68633528831901","3","0.022996664","-0.0301826","9.77364","sit down","0"
"68633548738464","3","0.022996664","-0.0301826","9.771244","sit down","0"
"68633568647943","3","0.0110192895","-0.03497356","9.764058","sit down","0"
"68633588554505","3","0.018205702","-0.0301826","9.776035","sit down","0"
"68633608461641","3","0.030183077","-0.0301826","9.778431","sit down","0"
"68633628368255","3","0.013414741","-0.03497356","9.780826","sit down","0"
"68633648288203","3","0.013414741","-0.039764553","9.754476","sit down","0"
"68633668195026","3","0.015810192","-0.03497356","9.737708","sit down","0"
"68633688103933","3","0.008623779","-0.027787149","9.766453","sit down","0"
"68633708010703","3","0.013414741","-0.0301826","9.780826","sit down","0"
"68633727914141","3","0.027787626","-0.037369043","9.740103","sit down","0"
"68633747820964","3","0.027787626","-0.046950966","9.749685","sit down","0"
"68633767735078","3","0.018205702","-0.039764553","9.761662","sit down","0"
"68633787641849","3","0.008623779","-0.042160004","9.790408","sit down","0"
"68633807560026","3","0.020601213","-0.042160004","9.764058","sit down","0"
"68633827466797","3","0.020601213","-0.044555485","9.77364","sit down","0"
"68633847403412","3","0.020601213","-0.051741928","9.77364","sit down","0"
"68633867310183","3","0.0349741","-0.03497356","9.759267","sit down","0"
"68633887218516","3","0.025392115","-0.027787149","9.742498","sit down","0"
"68633907125287","3","0.020601213","-0.022996157","9.754476","sit down","0"
"68633927039766","3","0.015810192","-0.03257811","9.75208","sit down","0"
"68633946946537","3","0.015810192","-0.037369043","9.761662","sit down","0"
"68633966826693","3","0.018205702","-0.015809774","9.771244","sit down","0"
"68633986733516","3","0.008623779","-0.03257811","9.764058","sit down","0"
"68634006668880","3","0.022996664","-0.046950966","9.761662","sit down","0"
"68634026575703","3","0.018205702","-0.03257811","9.77364","sit down","0"
"68634046490651","3","0.020601213","-0.025391668","9.749685","sit down","0"
"68634066397422","3","0.022996664","-0.027787149","9.766453","sit down","0"
"68634086312787","3","0.003832817","-0.020600706","9.807176","sit down","0"
"68634106219610","3","0.015810192","-0.0301826","9.771244","sit down","0"
"68634126127891","3","0.027787626","-0.051741928","9.737708","sit down","0"
"68634146034714","3","0.03736949","-0.051741928","9.766453","sit down","0"
"68634165948464","3","0.027787626","-0.027787149","9.74729","sit down","0"
"68634185855235","3","0.015810192","-0.022996157","9.776035","sit down","0"
"68634205733360","3","0.008623779","-0.027787149","9.792804","sit down","0"
"68634225640130","3","0.025392115","-0.044555485","9.771244","sit down","0"
"68634245578933","3","0.022996664","-0.039764553","9.740103","sit down","0"
"68634265485755","3","0.0349741","-0.037369043","9.759267","sit down","0"
"68634285350287","3","0.025392115","-0.018205225","9.77364","sit down","0"
"68634305257058","3","0.022996664","-0.0301826","9.768848","sit down","0"
"68634325178880","3","0.013414741","-0.037369043","9.756871","sit down","0"
"68634345085651","3","0.013414741","-0.03257811","9.749685","sit down","0"
"68634364993203","3","0.018205702","-0.027787149","9.780826","sit down","0"
"68634384899974","3","0.020601213","-0.020600706","9.785617","sit down","0"
"68634404831693","3","0.013414741","-0.042160004","9.7353115","sit down","0"
"68634424738516","3","0.027787626","-0.044555485","9.771244","sit down","0"
"68634444653516","3","0.013414741","-0.018205225","9.797595","sit down","0"
"68634464560235","3","0.032578588","-0.025391668","9.766453","sit down","0"
"68634484473047","3","0.030183077","-0.037369043","9.740103","sit down","0"
"68634504379870","3","0.030183077","-0.039764553","9.768848","sit down","0"
"68634524292735","3","0.013414741","-0.03257811","9.759267","sit down","0"
"68634544199558","3","0.0062283278","-0.03497356","9.768848","sit down","0"
"68634564037318","3","0.013414741","-0.03257811","9.761662","sit down","0"
"68634583944141","3","0.020601213","-0.03497356","9.7880125","sit down","0"
"68634603894662","3","0.018205702","-0.020600706","9.742498","sit down","0"
"68634623801433","3","0.044555962","-0.03497356","9.740103","sit down","0"
"68634643708724","3","0.044555962","-0.037369043","9.785617","sit down","0"
"68634663615495","3","0.015810192","-0.039764553","9.737708","sit down","0"
"68634683523516","3","-0.029703856","-0.020600706","9.72573","sit down","0"
"68634703430599","3","-0.0081445575","-0.027787149","9.804781","sit down","0"
"68634723336901","3","0.0349741","-0.046950966","9.792804","sit down","0"
"68634743244037","3","0.06371975","-0.05413738","9.689797","sit down","0"
"68634763184922","3","-0.01533097","-0.06132382","9.768848","sit down","0"
"68634783092058","3","-0.029703856","0.05126366","9.902996","sit down","0"
"68634802997578","3","-0.024912953","-0.12121078","9.687403","sit down","0"
"68634822904714","3","0.015810192","-0.06371933","9.696984","sit down","0"
"68634842773672","3","0.11162937","9.586215E-4","9.809572","sit down","0"
"68634862680755","3","0.046951473","-0.044555485","9.831131","sit down","0"
"68634882595599","3","0.11642033","-0.046950966","9.713753","sit down","0"
"68634902502735","3","0.025392115","-0.018205225","9.776035","sit down","0"
"68634922442787","3","0.015810192","9.586215E-4","9.764058","sit down","0"
"68634942349870","3","-0.034494817","-0.022996157","9.742498","sit down","0"
"68634962236276","3","-9.5808506E-4","-0.025391668","9.843109","sit down","0"
"68634982143412","3","-0.027308345","-0.020600706","9.811967","sit down","0"
"68635002049245","3","-0.0033535957","-0.0301826","9.744894","sit down","0"
"68635021956380","3","0.0062283278","0.027308851","9.740103","sit down","0"
"68635041865130","3","0.022996664","0.16624661","9.792804","sit down","0"
"68635061772266","3","0.09486103","0.19259688","9.7880125","sit down","0"
"68635081682891","3","0.09965193","0.13031444","9.7880125","sit down","0"
"68635101589974","3","0.19786656","0.30757985","9.776035","sit down","0"
"68635121495235","3","0.24817163","0.60701466","9.704171","sit down","0"
"68635141426224","3","0.16432989","0.5710825","9.632307","sit down","0"
"68635161333308","3","0.09007007","0.5303594","9.641888","sit down","0"
"68635181227370","3","0.044555962","-0.008623332","9.680216","sit down","0"
"68635201134505","3","-0.17822355","-0.57635164","9.7089615","sit down","0"
"68635221041797","3","-0.1375004","-0.4278321","9.74729","sit down","0"
"68635240948933","3","-0.13031399","-0.8087132","9.732917","sit down","0"
"68635260862474","3","-0.13510495","-1.2949953","10.410837","sit down","0"
"68635280769610","3","-0.45370355","-1.659108","10.961797","sit down","0"
"68635300668360","3","-0.2596698","-1.1752214","9.263403","sit down","0"
"68635320575495","3","0.80392265","-0.38471344","8.250115","sit down","0"
"68635340492005","3","1.3572782","-0.7272669","9.076556","sit down","0"
"68635360399141","3","0.5571884","-0.38471344","9.737708","sit down","0"
"68635380288047","3","-0.15426874","0.30278888","10.077866","sit down","0"
"68635400195183","3","-0.029703856","0.31955725","10.3773","sit down","0"
"68635420095183","3","0.1667254","-0.06611478","10.161707","sit down","0"
"68635440002266","3","0.20505303","-0.10683793","9.711357","sit down","0"
"68635459910287","3","0.26494002","0.015331477","9.558047","sit down","0"
"68635479817422","3","0.31045413","-0.05653289","9.632307","sit down","0"
"68635499721953","3","0.2170304","-0.097256005","9.77364","sit down","0"
"68635519629089","3","0.12121129","-0.044555485","9.816758","sit down","0"
"68635539531797","3","0.09486103","0.029704332","9.764058","sit down","0"
"68635559438880","3","0.09246552","0.08240485","9.720939","sit down","0"
"68635579380183","3","0.07090622","0.11115062","9.706566","sit down","0"
"68635599287318","3","0.015810192","0.08719584","9.744894","sit down","0"
"68635619161172","3","0.0613243","0.012935996","9.778431","sit down","0"
"68635639068308","3","0.15235251","-0.073301226","9.713753","sit down","0"
"68635658999245","3","0.21223944","-0.15953842","9.668239","sit down","0"
"68635678906380","3","0.18588918","-0.13797912","9.718544","sit down","0"
"68635698807058","3","0.09486103","-0.11402434","9.795198","sit down","0"
"68635718714193","3","0.046951473","-0.1307927","9.814363","sit down","0"
"68635738588672","3","0.08767456","-0.18349329","9.79999","sit down","0"
"68635758495755","3","0.16912085","-0.21702996","9.790408","sit down","0"
"68635778431380","3","0.19547111","-0.23858926","9.737708","sit down","0"
"68635798338516","3","0.18109828","-0.2841033","9.718544","sit down","0"
"68635818178203","3","0.13558412","-0.33201286","9.77364","sit down","0"
"68635838085339","3","0.08767456","-0.36794505","9.843109","sit down","0"
"68635858047578","3","0.07090622","-0.38231793","9.831131","sit down","0"
"68635877954714","3","0.09965193","-0.38471344","9.740103","sit down","0"
"68635897843360","3","0.14037514","-0.322431","9.749685","sit down","0"
"68635917750495","3","0.15235251","-0.20265707","9.823945","sit down","0"
"68635937659141","3","0.149957","-0.12600175","9.804781","sit down","0"
"68635957566276","3","0.16193438","-0.16193393","9.732917","sit down","0"
"68635977476589","3","0.13797963","-0.15953842","9.713753","sit down","0"
"68635997383724","3","0.14756149","-0.1307927","9.742498","sit down","0"
"68636017249141","3","0.14037514","-0.10923341","9.75208","sit down","0"
"68636037156276","3","0.14277059","-0.07569671","9.768848","sit down","0"
"68636057061849","3","0.13797963","-0.06611478","9.778431","sit down","0"
"68636076968933","3","0.11402482","-0.094860554","9.766453","sit down","0"
"68636096891380","3","0.11402482","-0.10204697","9.742498","sit down","0"
"68636116798516","3","0.15953892","-0.10923341","9.744894","sit down","0"
"68636136699245","3","0.14756149","-0.06611478","9.723335","sit down","0"
"68636156606380","3","0.104442954","-0.094860554","9.72573","sit down","0"
"68636176487474","3","0.12360674","-0.14516556","9.778431","sit down","0"
"68636196394141","3","0.13318872","-0.14995655","9.761662","sit down","0"
"68636216300599","3","0.109233916","-0.14995655","9.732917","sit down","0"
"68636236207266","3","0.104442954","-0.1739113","9.749685","sit down","0"
"68636256110912","3","0.11162937","-0.20984349","9.771244","sit down","0"
"68636276017578","3","0.11402482","-0.22661188","9.75208","sit down","0"
"68636295921016","3","0.106838405","-0.22661188","9.737708","sit down","0"
"68636315827683","3","0.09965193","-0.23379824","9.756871","sit down","0"
"68636335733360","3","0.12121129","-0.25775304","9.804781","sit down","0"
"68636355640078","3","0.12600225","-0.24098471","9.840713","sit down","0"
"68636375539141","3","0.09007007","-0.19786611","9.776035","sit down","0"
"68636395445860","3","0.09246552","-0.17630681","9.785617","sit down","0"
"68636415356953","3","0.11642033","-0.17630681","9.768848","sit down","0"
"68636435263620","3","0.11881584","-0.16193393","9.7089615","sit down","0"
"68636455172110","3","0.13797963","-0.17630681","9.732917","sit down","0"
"68636475078776","3","0.16912085","-0.15474752","9.783222","sit down","0"
"68636494983464","3","0.15953892","-0.12121078","9.77364","sit down","0"
"68636514890130","3","0.149957","-0.09006956","9.768848","sit down","0"
"68636534799558","3","0.11642033","-0.11641985","9.761662","sit down","0"
"68636554706224","3","0.1283977","-0.14516556","9.754476","sit down","0"
"68636574630912","3","0.13797963","-0.14277011","9.75208","sit down","0"
"68636594537578","3","0.13318872","-0.17151585","9.744894","sit down","0"
"68636614409818","3","0.1283977","-0.14756107","9.740103","sit down","0"
"68636634316485","3","0.11881584","-0.1307927","9.756871","sit down","0"
"68636654238151","3","0.106838405","-0.14516556","9.74729","sit down","0"
"68636674144870","3","0.09965193","-0.16193393","9.77364","sit down","0"
"68636694038620","3","0.09725648","-0.20265707","9.768848","sit down","0"
"68636713945287","3","0.104442954","-0.21942547","9.744894","sit down","0"
"68636733864297","3","0.11162937","-0.15953842","9.730521","sit down","0"
"68636753771016","3","0.106838405","-0.14995655","9.785617","sit down","0"
"68636773662995","3","0.104442954","-0.14516556","9.795198","sit down","0"
"68636793569714","3","0.12360674","-0.16193393","9.771244","sit down","0"
"68636813479193","3","0.12600225","-0.17630681","9.780826","sit down","0"
"68636833385912","3","0.12360674","-0.1906797","9.785617","sit down","0"
"68636853285026","3","0.13318872","-0.20265707","9.771244","sit down","0"
"68636873191745","3","0.12600225","-0.1739113","9.72573","sit down","0"
"68636893135651","3","0.109233916","-0.15714297","9.761662","sit down","0"
"68636913042370","3","0.11881584","-0.14277011","9.761662","sit down","0"
"68636932921849","3","0.12121129","-0.16193393","9.754476","sit down","0"
"68636952828464","3","0.13079321","-0.152352","9.754476","sit down","0"
"68636972735183","3","0.1283977","-0.15953842","9.75208","sit down","0"
"68636992622630","3","0.14037514","-0.16672489","9.75208","sit down","0"
"68637012529349","3","0.13558412","-0.16432944","9.740103","sit down","0"
"68637032474297","3","0.13797963","-0.16432944","9.744894","sit down","0"
"68637052380964","3","0.12360674","-0.15474752","9.768848","sit down","0"
"68637072299922","3","0.12121129","-0.16193393","9.759267","sit down","0"
"68637092206641","3","0.11162937","-0.16432944","9.754476","sit down","0"
"68637112113308","3","0.12360674","-0.16672489","9.771244","sit down","0"
"68637132019974","3","0.09965193","-0.17151585","9.778431","sit down","0"
"68637151927058","3","0.109233916","-0.17630681","9.75208","sit down","0"
"68637171833776","3","0.106838405","-0.1739113","9.768848","sit down","0"
"68637191714974","3","0.106838405","-0.18828419","9.742498","sit down","0"
"68637211621693","3","0.11402482","-0.1691204","9.776035","sit down","0"
"68637231534297","3","0.11881584","-0.16432944","9.792804","sit down","0"
"68637251440964","3","0.13079321","-0.14995655","9.744894","sit down","0"
"68637271350703","3","0.12121129","-0.16672489","9.742498","sit down","0"
"68637291257370","3","0.11881584","-0.17151585","9.771244","sit down","0"
"68637311150026","3","0.1283977","-0.17151585","9.766453","sit down","0"
"68637331056745","3","0.13558412","-0.16672489","9.7353115","sit down","0"
"68637350960703","3","0.13558412","-0.152352","9.761662","sit down","0"
"68637370867422","3","0.13079321","-0.14995655","9.783222","sit down","0"
"68637390790183","3","0.13318872","-0.15714297","9.768848","sit down","0"
"68637410696901","3","0.10204744","-0.16672489","9.74729","sit down","0"
"68637430588308","3","0.12121129","-0.16193393","9.780826","sit down","0"
"68637450495026","3","0.12121129","-0.152352","9.761662","lay down","0"
"68637470420651","3","0.12360674","-0.18349329","9.742498","lay down","0"
"68637490327318","3","0.109233916","-0.18349329","9.759267","lay down","0"
"68637510215287","3","0.09725648","-0.17151585","9.754476","lay down","0"
"68637530122005","3","0.13797963","-0.17151585","9.766453","lay down","0"
"68637550012578","3","0.16193438","-0.17151585","9.761662","lay down","0"
"68637569919245","3","0.14277059","-0.17870227","9.771244","lay down","0"
"68637589855860","3","0.12600225","-0.16672489","9.761662","lay down","0"
"68637609762526","3","0.09725648","-0.16432944","9.740103","lay down","0"
"68637629663672","3","0.09246552","-0.18349329","9.792804","lay down","0"
"68637649570339","3","0.11881584","-0.17630681","9.809572","lay down","0"
"68637669473464","3","0.11881584","-0.16672489","9.72573","lay down","0"
"68637689380130","3","0.11162937","-0.16672489","9.732917","lay down","0"
"68637709281433","3","0.11642033","-0.16672489","9.766453","lay down","0"
"68637729188099","3","0.11402482","-0.15474752","9.759267","lay down","0"
"68637749091224","3","0.1283977","-0.15474752","9.74729","lay down","0"
"68637768997891","3","0.11881584","-0.15953842","9.766453","lay down","0"
"68637788882110","3","0.13318872","-0.152352","9.756871","lay down","0"
"68637808788828","3","0.16912085","-0.14037463","9.720939","lay down","0"
"68637828673099","3","0.14277059","-0.12839723","9.742498","lay down","0"
"68637848579766","3","0.109233916","-0.13558367","9.75208","lay down","0"
"68637868515860","3","0.13797963","-0.1307927","9.75208","lay down","0"
"68637888422578","3","0.109233916","-0.19307515","9.737708","lay down","0"
"68637908329089","3","0.106838405","-0.23379824","9.783222","lay down","0"
"68637928235755","3","0.18109828","-0.20984349","9.802386","lay down","0"
"68637948139037","3","0.14756149","-0.18828419","9.692194","lay down","0"
"68637968045651","3","0.11642033","-0.23140284","9.720939","lay down","0"
"68637987946433","3","0.07569718","-0.25296214","9.833527","lay down","0"
"68638007853047","3","0.054137886","-0.20505258","9.804781","lay down","0"
"68638027754922","3","0.06611526","-0.1739113","9.740103","lay down","0"
"68638047661537","3","0.106838405","-0.13797912","9.768848","lay down","0"
"68638067558672","3","0.12600225","-0.16193393","9.778431","lay down","0"
"68638087465287","3","0.13558412","-0.18349329","9.780826","lay down","0"
"68638107355808","3","0.11642033","-0.21463445","9.696984","lay down","0"
"68638127262474","3","0.09965193","-0.20026156","9.689797","lay down","0"
"68638147160495","3","0.06851077","-0.15474752","9.749685","lay down","0"
"68638167067058","3","0.027787626","-0.05413738","9.811967","lay down","0"
"68638186994297","3","0.082883656","0.010540515","9.77364","lay down","0"
"68638206900912","3","0.16912085","-0.05892834","9.780826","lay down","0"
"68638226809610","3","0.15474796","-0.16432944","9.828736","lay down","0"
"68638246716224","3","0.1283977","-0.14516556","9.785617","lay down","0"
"68638266618620","3","0.16193438","-0.09006956","9.677821","lay down","0"
"68638286525235","3","0.18109828","-0.08288315","9.744894","lay down","0"
"68638306425964","3","0.14756149","-0.1739113","9.850295","lay down","0"
"68638326332578","3","0.13797963","-0.152352","9.852691","lay down","0"
"68638346239141","3","0.18588918","-0.020600706","9.720939","lay down","0"
"68638366145808","3","0.11881584","-0.23619375","9.756871","lay down","0"
"68638386018880","3","0.11881584","-0.33919933","9.716147","lay down","0"
"68638405925495","3","0.21463495","-0.26733503","9.646679","lay down","0"
"68638425847995","3","0.21223944","-0.25296214","9.737708","lay down","0"
"68638445754610","3","0.149957","-0.24098471","9.77364","lay down","0"
"68638465649558","3","0.14037514","-0.2553576","9.7880125","lay down","0"
"68638485556120","3","0.1882847","-0.212239","9.77364","lay down","0"
"68638505474193","3","0.14756149","-0.1739113","9.696984","lay down","0"
"68638525380860","3","0.09007007","-0.3080581","9.723335","lay down","0"
"68638545291120","3","0.15714347","-0.3439903","9.835922","lay down","0"
"68638565197735","3","0.26494002","-0.25296214","9.792804","lay down","0"
"68638585104870","3","0.20265758","-0.22182086","9.728126","lay down","0"
"68638605011485","3","0.11162937","-0.25056663","9.696984","lay down","0"
"68638624924245","3","0.08527905","-0.1739113","9.744894","lay down","0"
"68638644830860","3","0.056533396","0.0033540726","9.77364","lay down","0"
"68638664736537","3","-0.060845137","0.12073253","9.74729","lay down","0"
"68638684643151","3","-0.17822355","0.1470828","9.778431","lay down","0"
"68638704554141","3","-0.029703856","0.13750088","9.843109","lay down","0"
"68638724460808","3","0.19307566","0.02251792","9.859877","lay down","0"
"68638744372995","3","0.28170836","0.029704332","9.740103","lay down","0"
"68638764279610","3","0.3056631","-0.022996157","9.639493","lay down","0"
"68638784185808","3","0.22661233","-0.06611478","9.72573","lay down","0"
"68638804092422","3","0.0613243","-0.037369043","9.737708","lay down","0"
"68638824020495","3","0.025392115","-0.09006956","9.716147","lay down","0"
"68638843927058","3","0.11162937","-0.1691204","9.797595","lay down","0"
"68638863790495","3","0.19786656","-0.11641985","9.833527","lay down","0"
"68638883697110","3","0.2385897","-0.10923341","9.720939","lay down","0"
"68638903628568","3","0.20744848","-0.20026156","9.680216","lay down","0"
"68638923535183","3","0.12360674","-0.262544","9.756871","lay down","0"
"68638943465755","3","0.1283977","-0.22900733","9.821548","lay down","0"
"68638963372370","3","0.209844","-0.18109778","9.761662","lay down","0"
"68638983278151","3","0.21463495","-0.20984349","9.694589","lay down","0"
"68639003184766","3","0.13079321","-0.10204697","9.675425","lay down","0"
"68639023091120","3","0.15953892","-0.17870227","9.696984","lay down","0"
"68639042997735","3","0.27212644","-0.5595834","9.855085","lay down","0"
"68639062882943","3","0.20744848","-0.78236294","10.008397","lay down","0"
"68639082789558","3","0.106838405","-0.3871089","9.768848","lay down","0"
"68639102698933","3","0.25056714","-0.26733503","9.57721","lay down","0"
"68639122605547","3","0.19068015","-0.36315414","9.809572","lay down","0"
"68639142512370","3","0.76799047","-0.123606294","9.941323","lay down","0"
"68639162418985","3","3.5994463","-0.020600706","10.784532","lay down","0"
"68639182349870","3","0.870996","0.029704332","10.609662","lay down","0"
"68639202256485","3","-1.6514428","-0.3871089","8.245324","lay down","0"
"68639222155026","3","-1.9748324","-0.7200804","7.1553817","lay down","0"
"68639242061641","3","-1.7257028","0.69085646","9.284962","lay down","0"
"68639261975703","3","-0.024912953","1.2154663","11.807401","lay down","0"
"68639281882318","3","0.12360674","0.19020142","11.773864","lay down","0"
"68639301785755","3","-0.4273533","-0.5859337","9.567629","lay down","0"
"68639321692370","3","-0.13989586","-0.6937301","8.602251","lay down","0"
"68639341571849","3","-0.23811048","-0.4278321","8.825029","lay down","0"
"68639361478464","3","-0.080008924","0.010540515","9.57721","lay down","0"
"68639381408828","3","0.2529626","-0.011018783","10.391673","lay down","0"
"68639401315443","3","0.018205702","-0.11881533","10.240758","lay down","0"
"68639421236641","3","-0.3051839","-0.08527863","9.59877","lay down","0"
"68639441143203","3","-0.18780541","-0.13797912","9.390363","lay down","0"
"68639461048985","3","-0.15905976","-0.15953842","9.524509","lay down","0"
"68639480955547","3","-0.59024584","-0.11641985","9.701775","lay down","0"
"68639500838099","3","-0.89207613","-0.0301826","9.776035","lay down","0"
"68639520744714","3","-0.74595195","0.027308851","9.898205","lay down","0"
"68639540635391","3","-0.5638956","0.04886818","9.970069","lay down","0"
"68639560541953","3","-0.30039293","0.08240485","9.886227","lay down","0"
"68639580450808","3","-0.11594111","-0.06132382","9.737708","lay down","0"
"68639600357370","3","-0.0919863","-0.22182086","9.706566","lay down","0"
"68639620263203","3","-0.1375004","-0.07809219","9.74729","lay down","0"
"68639640169818","3","-0.108754694","-0.08288315","9.661052","lay down","0"
"68639660104870","3","-0.18540996","-0.22182086","9.65147","lay down","0"
"68639680011641","3","-0.24769244","-0.20505258","9.74729","lay down","0"
"68639699921485","3","-0.12791848","-0.13558367","9.850295","lay down","0"
"68639719828203","3","-0.15187329","-0.08288315","9.823945","lay down","0"
"68639739692578","3","-0.25727433","-0.15714297","9.77364","lay down","0"
"68639759599297","3","-0.39381662","-0.22421637","9.847899","lay down","0"
"68639779538828","3","-0.35788444","-0.123606294","9.938928","lay down","0"
"68639799445599","3","-0.01293546","-0.13558367","9.9269495","lay down","0"
"68639819344505","3","0.2170304","-0.31045356","9.514928","lay down","0"
"68639839251276","3","-0.12312758","-0.52125573","9.416713","lay down","0"
"68639859142422","3","-1.0525732","-0.2841033","9.663447","lay down","0"
"68639879049193","3","-0.9040535","0.33872107","10.152124","lay down","0"
"68639898960235","3","-0.34351155","0.7291841","10.813277","lay down","0"
"68639918867005","3","-0.49203122","0.33153465","10.085052","lay down","0"
"68639938779037","3","-0.38423467","-0.44699588","8.57111","lay down","0"
"68639958685808","3","-0.11833656","-0.5068828","8.954386","lay down","0"
"68639978620495","3","-0.058449626","-0.14995655","10.161707","lay down","0"
"68639998527266","3","-0.23571503","0.21894714","10.262317","lay down","0"
"68640018405547","3","-0.3602799","0.18780592","9.891018","lay down","0"
"68640038312266","3","-0.4273533","-0.10923341","9.658657","lay down","0"
"68640058226068","3","-0.3722573","-0.24338022","9.536487","lay down","0"
"68640078132839","3","-0.26685625","-0.262544","9.550859","lay down","0"
"68640098039141","3","-0.27404267","-0.22182086","9.65147","lay down","0"
"68640117945912","3","-0.32913867","-0.068510264","9.7880125","lay down","0"
"68640137869766","3","-0.37704822","0.0033540726","9.970069","lay down","0"
"68640157776485","3","-0.4393307","-0.05892834","10.00121","lay down","0"
"68640177672630","3","-0.5519182","-0.14516556","9.7880125","lay down","0"
"68640197579401","3","-0.50400865","-0.14037463","9.639493","lay down","0"
"68640217474870","3","-0.34111607","-0.068510264","9.797595","lay down","0"
"68640237381641","3","-0.295602","-0.03497356","9.828736","lay down","0"
"68640257283099","3","-0.34590703","-0.09006956","9.6562605","lay down","0"
"68640277189818","3","-0.30278844","-0.11402434","9.644284","lay down","0"
"68640297098099","3","-0.23811048","-0.068510264","9.759267","lay down","0"
"68640317004870","3","-0.25727433","-0.022996157","9.764058","lay down","0"
"68640336943360","3","-0.32195225","-0.020600706","9.749685","lay down","0"
"68640356850026","3","-0.3626754","-0.044555485","9.785617","lay down","0"
"68640376726276","3","-0.36507085","-0.0301826","9.804781","lay down","0"
"68640396633047","3","-0.37944373","-0.037369043","9.79999","lay down","0"
"68640416548255","3","-0.3602799","-0.06132382","9.797595","lay down","0"
"68640436454974","3","-0.30757937","-0.068510264","9.811967","lay down","0"
"68640456349610","3","-0.34111607","-0.068510264","9.783222","lay down","0"
"68640476256380","3","-0.39381662","-0.07569671","9.7353115","lay down","0"
"68640496155599","3","-0.35309345","-0.08527863","9.797595","lay down","0"
"68640516062370","3","-0.3051839","-0.07569671","9.811967","lay down","0"
"68640536006485","3","-0.3483025","-0.08527863","9.766453","lay down","0"
"68640555913203","3","-0.3483025","-0.070905745","9.740103","lay down","0"
"68640575822787","3","-0.33392966","-0.046950966","9.771244","lay down","0"
"68640595729558","3","-0.3483025","-0.037369043","9.75208","lay down","0"
"68640615632058","3","-0.38423467","-0.03497356","9.768848","lay down","0"
"68640635538828","3","-0.38902566","-0.06371933","9.754476","lay down","0"
"68640655430235","3","-0.38183922","-0.06132382","9.744894","lay down","0"
"68640675336953","3","-0.35548896","-0.051741928","9.776035","lay down","0"
"68640695244349","3","-0.36986184","-0.049346447","9.756871","lay down","0"
"68640715151016","3","-0.350698","-0.06132382","9.7353115","lay down","0"
"68640735053776","3","-0.32674322","-0.07809219","9.764058","lay down","0"
"68640754960443","3","-0.33872062","-0.08288315","9.759267","lay down","0"
"68640774895964","3","-0.350698","-0.06611478","9.749685","lay down","0"
"68640794802683","3","-0.350698","-0.07569671","9.802386","lay down","0"
"68640814675651","3","-0.3626754","-0.073301226","9.809572","lay down","0"
"68640834582370","3","-0.34351155","-0.05892834","9.7880125","lay down","0"
"68640854492110","3","-0.3602799","-0.049346447","9.778431","lay down","0"
"68640874398828","3","-0.35548896","-0.05413738","9.785617","lay down","0"
"68640894343047","3","-0.34590703","-0.068510264","9.778431","lay down","0"
"68640914249714","3","-0.34111607","-0.06371933","9.75208","lay down","0"
"68640934145130","3","-0.3363251","-0.051741928","9.732917","lay down","0"
"68640954051797","3","-0.33392966","-0.068510264","9.744894","lay down","0"
"68640973938568","3","-0.33153418","-0.051741928","9.761662","lay down","0"
"68640993845235","3","-0.33153418","-0.05413738","9.761662","lay down","0"
"68641013777683","3","-0.36986184","-0.05892834","9.776035","lay down","0"
"68641033684401","3","-0.38663018","-0.06611478","9.749685","lay down","0"
"68641053570235","3","-0.350698","-0.05653289","9.790408","lay down","0"
"68641073476953","3","-0.34351155","-0.068510264","9.79999","lay down","0"
"68641093407630","3","-0.38183922","-0.08527863","9.740103","lay down","0"
"68641113322110","3","-0.38183922","-0.07809219","9.766453","lay down","0"
"68641133224245","3","-0.35309345","-0.06371933","9.77364","lay down","0"
"68641153108620","3","-0.33872062","-0.06371933","9.754476","lay down","0"
"68641173015339","3","-0.350698","-0.05413738","9.766453","lay down","0"
"68641192921433","3","-0.34351155","-0.06611478","9.783222","lay down","0"
"68641212828151","3","-0.350698","-0.06132382","9.780826","lay down","0"
"68641232727891","3","-0.3626754","-0.05413738","9.737708","lay down","0"
"68641252634558","3","-0.3483025","-0.05653289","9.766453","lay down","0"
"68641272572735","3","-0.36507085","-0.06132382","9.7880125","lay down","0"
"68641292479453","3","-0.35309345","-0.07569671","9.759267","lay down","0"
"68641312397995","3","-0.33872062","-0.05653289","9.766453","lay down","0"
"68641332304662","3","-0.3483025","-0.073301226","9.771244","lay down","0"
"68641352217943","3","-0.3626754","-0.05413738","9.780826","lay down","0"
"68641372124610","3","-0.36746633","-0.046950966","9.759267","lay down","0"
"68641392033464","3","-0.3483025","-0.05892834","9.768848","lay down","0"
"68641411940130","3","-0.3483025","-0.068510264","9.771244","lay down","0"
"68641431825651","3","-0.3483025","-0.070905745","9.756871","lay down","0"
"68641451732318","3","-0.3602799","-0.06132382","9.776035","sit up","0"
"68641471660547","3","-0.350698","-0.068510264","9.768848","sit up","0"
"68641491567214","3","-0.35309345","-0.049346447","9.761662","sit up","0"
"68641511462474","3","-0.36746633","-0.044555485","9.74729","sit up","0"
"68641531369141","3","-0.3626754","-0.06371933","9.771244","sit up","0"
"68641551277162","3","-0.34590703","-0.06132382","9.783222","sit up","0"
"68641571183828","3","-0.350698","-0.051741928","9.744894","sit up","0"
"68641591091485","3","-0.34351155","-0.05413738","9.756871","sit up","0"
"68641610998151","3","-0.33392966","-0.06611478","9.756871","sit up","0"
"68641630908360","3","-0.3602799","-0.08048767","9.764058","sit up","0"
"68641650815026","3","-0.35788444","-0.073301226","9.737708","sit up","0"
"68641670723620","3","-0.350698","-0.068510264","9.737708","sit up","0"
"68641690630339","3","-0.35788444","-0.05413738","9.785617","sit up","0"
"68641710544818","3","-0.35788444","-0.05413738","9.768848","sit up","0"
"68641730451537","3","-0.35309345","-0.06132382","9.766453","sit up","0"
"68641750359714","3","-0.35788444","-0.05892834","9.764058","sit up","0"
"68641770266380","3","-0.35548896","-0.070905745","9.756871","sit up","0"
"68641790126589","3","-0.350698","-0.068510264","9.771244","sit up","0"
"68641810033255","3","-0.3602799","-0.05892834","9.766453","sit up","0"
"68641829977058","3","-0.35548896","-0.046950966","9.771244","sit up","0"
"68641849883776","3","-0.34590703","-0.06132382","9.742498","sit up","0"
"68641869790287","3","-0.3363251","-0.05413738","9.761662","sit up","0"
"68641889697005","3","-0.35309345","-0.049346447","9.785617","sit up","0"
"68641909584089","3","-0.36507085","-0.068510264","9.764058","sit up","0"
"68641929490755","3","-0.3602799","-0.05653289","9.783222","sit up","0"
"68641949414193","3","-0.36986184","-0.046950966","9.776035","sit up","0"
"68641969320912","3","-0.3626754","-0.051741928","9.768848","sit up","0"
"68641989183724","3","-0.35309345","-0.044555485","9.771244","sit up","0"
"68642009090391","3","-0.35788444","-0.05892834","9.764058","sit up","0"
"68642029017318","3","-0.35309345","-0.070905745","9.768848","sit up","0"
"68642048924037","3","-0.34351155","-0.051741928","9.776035","sit up","0"
"68642068861485","3","-0.35548896","-0.05653289","9.778431","sit up","0"
"68642088768203","3","-0.37944373","-0.051741928","9.783222","sit up","0"
"68642108635547","3","-0.36746633","-0.051741928","9.74729","sit up","0"
"68642128542214","3","-0.34111607","-0.06371933","9.759267","sit up","0"
"68642148446433","3","-0.40100306","-0.073301226","9.72573","sit up","0"
"68642168353099","3","-0.40818948","-0.07569671","9.77364","sit up","0"
"68642188256693","3","-0.35548896","-0.051741928","9.869459","sit up","0"
"68642208163308","3","-0.3602799","-0.011018783","9.696984","sit up","0"
"68642228071224","3","-0.38423467","0.010540515","9.778431","sit up","0"
"68642247977891","3","-0.43214428","-0.006227821","9.816758","sit up","0"
"68642267891224","3","-0.44412166","-0.008623332","9.687403","sit up","0"
"68642287797839","3","-0.42495784","0.012935996","9.687403","sit up","0"
"68642307710235","3","-0.46328548","-0.018205225","9.754476","sit up","0"
"68642327616901","3","-0.46568096","-0.12121078","9.72573","sit up","0"
"68642347513985","3","-0.2620653","-0.1691204","9.728126","sit up","0"
"68642367420651","3","-0.24529693","-0.22421637","9.785617","sit up","0"
"68642387323047","3","-0.25727433","-0.20505258","9.869459","sit up","0"
"68642407229714","3","-0.25248337","-0.08288315","9.898205","sit up","0"
"68642427143151","3","-0.38423467","-0.013414264","9.696984","sit up","0"
"68642447049766","3","-0.49203122","-0.006227821","9.713753","sit up","0"
"68642466951380","3","-0.40100306","-0.046950966","9.816758","sit up","0"
"68642486857995","3","-0.27643815","-0.06132382","9.797595","sit up","0"
"68642506766849","3","-0.240506","-0.03257811","9.661052","sit up","0"
"68642526673464","3","-0.2500879","-0.12121078","9.665843","sit up","0"
"68642546586641","3","-0.2812291","-0.19786611","9.82634","sit up","0"
"68642566493255","3","-0.14947778","-0.13797912","9.907787","sit up","0"
"68642586401433","3","0.06851077","-0.09006956","9.855085","sit up","0"
"68642606225391","3","0.109233916","-0.23140284","9.766453","sit up","0"
"68642626131953","3","0.030183077","-0.26733503","9.718544","sit up","0"
"68642646112891","3","0.020601213","-0.13797912","9.637098","sit up","0"
"68642666019558","3","0.09486103","-0.073301226","9.7089615","sit up","0"
"68642685950964","3","0.1451661","-0.08048767","9.879041","sit up","0"
"68642705857578","3","0.054137886","-0.08767411","9.891018","sit up","0"
"68642725740755","3","0.018205702","-0.070905745","9.749685","sit up","0"
"68642745647370","3","-0.15666425","-0.12600175","9.668239","sit up","0"
"68642765551693","3","-0.07521796","-0.17151585","9.668239","sit up","0"
"68642785458360","3","0.08767456","-0.20505258","9.744894","sit up","0"
"68642805376276","3","0.054137886","-0.27212593","9.7880125","sit up","0"
"68642825282891","3","0.08767456","-0.24098471","9.821548","sit up","0"
"68642845193985","3","0.08527905","-0.23858926","9.780826","sit up","0"
"68642865100651","3","0.06371975","-0.26493952","9.77364","sit up","0"
"68642884992318","3","-0.01533097","-0.26973042","9.780826","sit up","0"
"68642904898933","3","-0.027308345","-0.26014856","9.790408","sit up","0"
"68642924823151","3","0.030183077","-0.212239","9.768848","sit up","0"
"68642944729818","3","0.0613243","-0.123606294","9.72573","sit up","0"
"68642964631797","3","0.04216051","-0.15474752","9.749685","sit up","0"
"68642984538464","3","0.020601213","-0.21702996","9.771244","sit up","0"
"68643004472422","3","0.044555962","-0.22900733","9.716147","sit up","0"
"68643024379037","3","0.11402482","-0.20744804","9.720939","sit up","0"
"68643044261016","3","0.11642033","-0.17151585","9.766453","sit up","0"
"68643064167526","3","0.09486103","-0.18109778","9.77364","sit up","0"
"68643084073620","3","0.07090622","-0.10923341","9.778431","sit up","0"
"68643103980235","3","0.056533396","-0.07809219","9.744894","sit up","0"
"68643123914401","3","0.015810192","-0.08767411","9.754476","sit up","0"
"68643143821068","3","0.0110192895","-0.07569671","9.754476","sit up","0"
"68643163693099","3","0.054137886","-0.042160004","9.737708","sit up","0"
"68643183599714","3","0.080488145","-0.039764553","9.768848","sit up","0"
"68643203542891","3","0.07330167","-0.10444245","9.780826","sit up","0"
"68643223449505","3","0.054137886","-0.11402434","9.754476","sit up","0"
"68643243368203","3","0.082883656","-0.12600175","9.749685","sit up","0"
"68643263274818","3","0.056533396","-0.10923341","9.761662","sit up","0"
"68643283187474","3","0.07569718","-0.1307927","9.768848","sit up","0"
"68643303094089","3","0.09486103","-0.11162889","9.804781","sit up","0"
"68643323005130","3","0.049346924","-0.07809219","9.816758","sit up","0"
"68643342911797","3","0.044555962","-0.044555485","9.77364","sit up","0"
"68643362812735","3","0.03736949","-0.13558367","9.728126","sit up","0"
"68643382719349","3","-0.010540068","-0.31764004","9.730521","sit up","0"
"68643402615078","3","-0.0081445575","-0.32482645","9.77364","sit up","0"
"68643422521745","3","0.020601213","-0.2817079","9.696984","sit up","0"
"68643442438828","3","0.046951473","-0.26014856","9.675425","sit up","0"
"68643462345443","3","0.032578588","-0.26493952","9.795198","sit up","0"
"68643482243203","3","0.09486103","-0.212239","9.819154","sit up","0"
"68643502149870","3","0.14037514","-0.1307927","9.75208","sit up","0"
"68643522091589","3","0.15714347","-0.08048767","9.756871","sit up","0"
"68643541998203","3","0.11162937","-0.070905745","9.776035","sit up","0"
"68643561909714","3","0.027787626","-0.15474752","9.814363","sit up","0"
"68643581816328","3","-0.0081445575","-0.19307515","9.761662","sit up","0"
"68643601694974","3","-0.03928578","-0.22421637","9.74729","sit up","0"
"68643621601641","3","-0.048867702","-0.20744804","9.728126","sit up","0"
"68643641541328","3","0.0062283278","-0.1906797","9.720939","sit up","0"
"68643661448620","3","0.06611526","-0.17870227","9.756871","sit up","0"
"68643681327735","3","0.13318872","-0.13318819","9.749685","sit up","0"
"68643701235026","3","0.109233916","-0.11881533","9.749685","sit up","0"
"68643721112266","3","0.020601213","-0.123606294","9.764058","sit up","0"
"68643741019558","3","-0.036890328","-0.14277011","9.744894","sit up","0"
"68643760957995","3","0.018205702","-0.1739113","9.783222","sit up","0"
"68643780865339","3","0.13079321","-0.15474752","9.754476","sit up","0"
"68643800773620","3","0.149957","-0.12121078","9.716147","sit up","0"
"68643820680964","3","0.09007007","-0.09006956","9.72573","sit up","0"
"68643840589505","3","0.049346924","-0.008623332","9.776035","sit up","0"
"68643860496797","3","0.0110192895","-0.006227821","9.778431","sit up","0"
"68643880404558","3","-0.01293546","-0.07569671","9.79999","sit up","0"
"68643900311849","3","0.013414741","-0.15714297","9.730521","sit up","0"
"68643920217995","3","-0.0057491064","-0.20026156","9.723335","sit up","0"
"68643940125287","3","-0.022517443","-0.14037463","9.75208","sit up","0"
"68643960055964","3","0.039765","-0.26973042","9.711357","sit up","0"
"68643979963255","3","0.109233916","-0.34159485","9.749685","sit up","0"
"68643999864558","3","0.1283977","-0.14756107","9.7353115","sit up","0"
"68644019771849","3","0.046951473","-0.06132382","9.694589","sit up","0"
"68644039669453","3","-0.06803155","-0.08767411","9.816758","sit up","0"
"68644059576745","3","-0.1135456","-0.05413738","9.960486","sit up","0"
"68644079485287","3","-0.09677726","-0.09246507","9.864668","sit up","0"
"68644099392578","3","-0.060845137","-0.20744804","9.740103","sit up","0"
"68644119302318","3","-0.01293546","-0.23858926","9.682611","sit up","0"
"68644139209610","3","0.020601213","-0.30566266","9.694589","sit up","0"
"68644159116901","3","-9.5808506E-4","-0.34638575","9.754476","sit up","0"
"68644179024245","3","-0.027308345","-0.28889433","9.756871","sit up","0"
"68644198931901","3","-0.048867702","-0.11881533","9.716147","sit up","0"
"68644218839193","3","-0.04407674","-0.068510264","9.740103","sit up","0"
"68644238774714","3","-0.11594111","-0.073301226","9.895809","sit up","0"
"68644258682005","3","-0.16145515","-0.05413738","9.855085","sit up","0"
"68644278577110","3","-0.14947778","-0.046950966","9.783222","sit up","0"
"68644298484453","3","-0.15426874","-0.0301826","9.742498","sit up","0"
"68644318378047","3","-0.15426874","-0.07569671","9.742498","sit up","0"
"68644338285391","3","-0.12312758","-0.05413738","9.823945","sit up","0"
"68644358193672","3","-0.12312758","-0.018205225","9.814363","sit up","0"
"68644378101016","3","-0.053658664","0.010540515","9.759267","sit up","0"
"68644398005651","3","-0.010540068","-0.037369043","9.761662","sit up","0"
"68644417912995","3","-0.058449626","-0.123606294","9.732917","sit up","0"
"68644437821433","3","-0.017726481","-0.15953842","9.72573","sit up","0"
"68644457728776","3","0.080488145","-0.20744804","9.718544","sit up","0"
"68644477666693","3","0.10204744","-0.21702996","9.701775","sit up","0"
"68644497573985","3","0.09246552","-0.21463445","9.661052","sit up","0"
"68644517462318","3","0.056533396","-0.20026156","9.759267","sit up","0"
"68644537369610","3","-0.01293546","-0.08527863","9.82634","sit up","0"
"68644557252162","3","-0.08959085","0.015331477","9.732917","sit up","0"
"68644577159453","3","-0.0919863","0.08480036","9.687403","sit up","0"
"68644597099089","3","-0.020121932","0.032099843","9.790408","sit up","0"
"68644617006328","3","0.0349741","-0.33201286","9.82634","sit up","0"
"68644636897214","3","-9.5808506E-4","-0.6266568","9.840713","sit up","0"
"68644656804505","3","0.032578588","-0.4350185","9.790408","sit up","0"
"68644676746641","3","0.13079321","-0.26493952","9.59877","sit up","0"
"68644696654037","3","0.09965193","-0.36315414","9.888623","sit up","0"
"68644716557058","3","0.039765","-0.27452144","10.135357","sit up","0"
"68644736464453","3","-0.020121932","-0.22661188","9.807176","sit up","0"
"68644756366745","3","-0.07282251","-0.27212593","9.584397","sit up","0"
"68644776274193","3","-0.020121932","-0.2984762","9.69938","sit up","0"
"68644796161068","3","-0.01533097","-0.23379824","9.783222","sit up","0"
"68644816068464","3","-0.01293546","-0.07569671","9.689797","sit up","0"
"68644835978620","3","-0.0057491064","0.034495294","9.675425","sit up","0"
"68644855886016","3","0.0110192895","0.010540515","9.792804","sit up","0"
"68644875787630","3","0.054137886","-0.08767411","9.855085","sit up","0"
"68644895695026","3","0.056533396","-0.15474752","9.792804","sit up","0"
"68644915626016","3","0.07569718","-0.14516556","9.637098","sit up","0"
"68644935533412","3","0.11162937","-0.11162889","9.658657","sit up","0"
"68644955413255","3","0.12121129","-0.094860554","9.77364","sit up","0"
"68644975320651","3","0.09965193","-0.06132382","9.850295","sit up","0"
"68644995230495","3","0.054137886","-0.08288315","9.802386","sit up","0"
"68645015137891","3","0.04216051","-0.12600175","9.732917","sit up","0"
"68645035053672","3","0.07090622","-0.14756107","9.704171","sit up","0"
"68645054961068","3","0.054137886","-0.14995655","9.754476","sit up","0"
"68645074861016","3","0.020601213","-0.14037463","9.761662","sit up","0"
"68645094768360","3","-0.036890328","-0.15953842","9.771244","sit up","0"
"68645114616276","3","0.0062283278","-0.16193393","9.77364","sit up","0"
"68645134523672","3","0.049346924","-0.15953842","9.74729","sit up","0"
"68645154482318","3","0.0110192895","-0.18588868","9.749685","sit up","0"
"68645174389714","3","-9.5808506E-4","-0.21463445","9.749685","sit up","0"
"68645194319401","3","-0.010540068","-0.21702996","9.759267","sit up","0"
"68645214226797","3","-0.0057491064","-0.18828419","9.785617","sit up","0"
"68645234144141","3","0.015810192","-0.17630681","9.742498","sit up","0"
"68645254051589","3","0.0349741","-0.18349329","9.783222","sit up","0"
"68645273938828","3","0.046951473","-0.17630681","9.811967","sit up","0"
"68645293846224","3","0.0613243","-0.17870227","9.795198","sit up","0"
"68645313758255","3","0.06611526","-0.17630681","9.764058","sit up","0"
"68645333665651","3","0.054137886","-0.16193393","9.742498","sit up","0"
"68645353576276","3","0.046951473","-0.14995655","9.764058","sit up","0"
"68645373483672","3","0.03736949","-0.13558367","9.785617","sit up","0"
"68645393374662","3","0.025392115","-0.12600175","9.754476","sit up","0"
"68645413282058","3","0.0349741","-0.13797912","9.754476","sit up","0"
"68645433215495","3","0.051742375","-0.1307927","9.754476","sit up","0"
"68645453122839","3","0.046951473","-0.12839723","9.742498","stand up","0"
"68645473008360","3","0.039765","-0.13318819","9.728126","stand up","0"
"68645492915755","3","0.018205702","-0.152352","9.754476","stand up","0"
"68645512850860","3","0.020601213","-0.16432944","9.756871","stand up","0"
"68645532758255","3","0.030183077","-0.16193393","9.742498","stand up","0"
"68645552648724","3","0.032578588","-0.15474752","9.754476","stand up","0"
"68645572556120","3","0.022996664","-0.1691204","9.764058","stand up","0"
"68645592453724","3","0.022996664","-0.16672489","9.783222","stand up","0"
"68645612361120","3","0.025392115","-0.16432944","9.740103","stand up","0"
"68645632262995","3","0.020601213","-0.1691204","9.730521","stand up","0"
"68645652170391","3","0.039765","-0.16432944","9.761662","stand up","0"
"68645672090755","3","0.027787626","-0.14995655","9.795198","stand up","0"
"68645691998203","3","0.03736949","-0.152352","9.744894","stand up","0"
"68645711913724","3","0.044555962","-0.16672489","9.732917","stand up","0"
"68645731821016","3","0.051742375","-0.16432944","9.74729","stand up","0"
"68645751712683","3","0.030183077","-0.14277011","9.737708","stand up","0"
"68645771620026","3","0.018205702","-0.16432944","9.742498","stand up","0"
"68645791402630","3","0.0110192895","-0.152352","9.780826","stand up","0"
"68645811309922","3","0.013414741","-0.14037463","9.749685","stand up","0"
"68645831341641","3","0.013414741","-0.15714297","9.701775","stand up","0"
"68645851247630","3","-0.01533097","-0.15953842","9.742498","stand up","0"
"68645871154974","3","-0.01533097","-0.17630681","9.756871","stand up","0"
"68645891098672","3","-0.0057491064","-0.1691204","9.783222","stand up","0"
"68645911006016","3","0.0014373064","-0.14756107","9.759267","stand up","0"
"68645930914297","3","0.022996664","-0.15474752","9.742498","stand up","0"
"68645950821589","3","0.06371975","-0.16432944","9.771244","stand up","0"
"68645970727683","3","0.080488145","-0.14516556","9.778431","stand up","0"
"68645990634974","3","0.06371975","-0.15953842","9.766453","stand up","0"
"68646010526901","3","0.06851077","-0.19307515","9.778431","stand up","0"
"68646030434245","3","0.06611526","-0.20265707","9.797595","stand up","0"
"68646050356120","3","0.054137886","-0.17151585","9.77364","stand up","0"
"68646070263360","3","0.06371975","-0.18588868","9.756871","stand up","0"
"68646090172891","3","0.106838405","-0.19786611","9.77364","stand up","0"
"68646110080235","3","0.12600225","-0.14756107","9.77364","stand up","0"
"68646129985755","3","0.104442954","-0.16672489","9.732917","stand up","0"
"68646149893099","3","0.09965193","-0.20265707","9.790408","stand up","0"
"68646169781953","3","0.06611526","-0.18349329","9.785617","stand up","0"
"68646189689245","3","0.049346924","-0.152352","9.740103","stand up","0"
"68646209580703","3","0.06851077","-0.14995655","9.766453","stand up","0"
"68646229487995","3","0.06611526","-0.17870227","9.797595","stand up","0"
"68646249424193","3","0.0349741","-0.17870227","9.776035","stand up","0"
"68646269331537","3","0.022996664","-0.18109778","9.7353115","stand up","0"
"68646289217630","3","0.0613243","-0.20026156","9.821548","stand up","0"
"68646309124922","3","0.032578588","-0.13558367","9.809572","stand up","0"
"68646329026641","3","0.039765","-0.09006956","9.718544","stand up","0"
"68646348933933","3","0.09725648","-0.123606294","9.790408","stand up","0"
"68646368857110","3","0.12360674","-0.15953842","9.833527","stand up","0"
"68646388764453","3","0.12360674","-0.16432944","9.742498","stand up","0"
"68646408675860","3","0.12121129","-0.15474752","9.740103","stand up","0"
"68646428583203","3","0.022996664","-0.073301226","9.802386","stand up","0"
"68646448503203","3","-0.06803155","-0.070905745","9.790408","stand up","0"
"68646468410547","3","-0.04168123","-0.14995655","9.711357","stand up","0"
"68646488280495","3","0.12600225","-0.15714297","9.718544","stand up","0"
"68646508187839","3","0.1283977","-0.05413738","9.766453","stand up","0"
"68646528107526","3","0.06611526","-0.073301226","9.749685","stand up","0"
"68646548014818","3","-0.0033535957","-0.097256005","9.790408","stand up","0"
"68646567944662","3","-0.12791848","-0.28889433","9.790408","stand up","0"
"68646587851953","3","-0.056054115","-0.27212593","9.754476","stand up","0"
"68646607719558","3","-0.19499189","-0.1307927","9.682611","stand up","0"
"68646627626849","3","-0.6525283","-0.60988843","9.567629","stand up","0"
"68646647563151","3","-0.46089","-1.0770068","9.7353115","stand up","0"
"68646667470495","3","-0.048867702","0.26685673","10.077866","stand up","0"
"68646687343360","3","0.2385897","1.014246","9.57721","stand up","0"
"68646707250651","3","0.14277059","-0.051741928","9.162793","stand up","0"
"68646727183828","3","-0.06563604","-0.30566266","10.017979","stand up","0"
"68646747091172","3","0.07090622","0.07042748","10.338973","stand up","0"
"68646766981641","3","0.25775355","0.13989636","9.723335","stand up","0"
"68646786888985","3","0.19307566","-0.15474752","9.373595","stand up","0"
"68646806795599","3","0.209844","-0.26733503","9.653866","stand up","0"
"68646826702891","3","0.23619425","-0.11641985","9.811967","stand up","0"
"68646846587005","3","0.106838405","0.07042748","9.802386","stand up","0"
"68646866494297","3","-0.032099366","0.058450073","9.852691","stand up","0"
"68646886393985","3","-0.06563604","-0.08288315","9.79999","stand up","0"
"68646906301276","3","0.0014373064","-0.10683793","9.740103","stand up","0"
"68646926238151","3","0.09007007","-0.094860554","9.728126","stand up","0"
"68646946145495","3","0.09007007","-0.123606294","9.737708","stand up","0"
"68646966028724","3","0.058928847","-0.10444245","9.761662","stand up","0"
"68646985936016","3","0.039765","-0.044555485","9.797595","stand up","0"
"68647005844766","3","0.08527905","-0.027787149","9.811967","stand up","0"
"68647025752058","3","0.10204744","-0.05892834","9.742498","stand up","0"
"68647045657995","3","0.07330167","-0.08767411","9.737708","stand up","0"
"68647065565339","3","0.0613243","-0.10204697","9.790408","stand up","0"
"68647085466276","3","0.09246552","-0.070905745","9.807176","stand up","0"
"68647105373568","3","0.06851077","-0.06611478","9.756871","stand up","0"
"68647125314974","3","0.078092635","-0.07569671","9.74729","stand up","0"
"68647145222318","3","0.14756149","-0.044555485","9.792804","stand up","0"
"68647165106276","3","0.15714347","-0.05892834","9.764058","stand up","0"
"68647185013568","3","0.12600225","-0.07569671","9.732917","stand up","0"
"68647204917005","3","0.08767456","-0.051741928","9.764058","stand up","0"
"68647224824297","3","0.10204744","-0.05653289","9.811967","stand up","0"
"68647244735078","3","0.09965193","-0.09246507","9.749685","stand up","0"
"68647264642370","3","0.09246552","-0.11641985","9.7089615","stand up","0"
"68647284574870","3","0.056533396","-0.07569671","9.732917","stand up","0"
"68647304482214","3","0.049346924","-0.051741928","9.819154","stand up","0"
"68647324371693","3","0.07569718","-0.08527863","9.804781","stand up","0"
"68647344278985","3","0.11402482","-0.11402434","9.720939","stand up","0"
"68647364157474","3","0.11402482","-0.08767411","9.716147","stand up","0"
"68647384064766","3","0.09486103","-0.06611478","9.783222","stand up","0"
"68647403979558","3","0.046951473","-0.06371933","9.809572","stand up","0"
"68647423886849","3","0.058928847","-0.08048767","9.764058","stand up","0"
"68647443802110","3","0.082883656","-0.09006956","9.732917","stand up","0"
"68647463709453","3","0.11881584","-0.09006956","9.732917","stand up","0"
"68647483610599","3","0.10204744","-0.06371933","9.778431","stand up","0"
"68647503517891","3","0.080488145","-0.07569671","9.778431","stand up","0"
"68647523424610","3","0.0613243","-0.09006956","9.75208","stand up","0"
"68647543331901","3","0.078092635","-0.068510264","9.749685","stand up","0"
"68647563181485","3","0.09007007","-0.094860554","9.776035","stand up","0"
"68647583088828","3","0.104442954","-0.09006956","9.764058","stand up","0"
"68647603015599","3","0.078092635","-0.08048767","9.756871","stand up","0"
"68647622922943","3","0.07330167","-0.08527863","9.761662","stand up","0"
"68647642812214","3","0.06851077","-0.08288315","9.759267","stand up","0"
"68647662719558","3","0.07330167","-0.09246507","9.761662","stand up","0"
"68647682653203","3","0.09246552","-0.08288315","9.740103","stand up","0"
"68647702560547","3","0.09486103","-0.073301226","9.754476","stand up","0"
"68647722460599","3","0.09725648","-0.06611478","9.780826","stand up","0"
"68647742367683","3","0.080488145","-0.08048767","9.778431","stand up","0"
"68647762242630","3","0.08527905","-0.08527863","9.776035","stand up","0"
"68647782142943","3","0.07330167","-0.08048767","9.759267","stand up","0"
"68647802065078","3","0.09007007","-0.08767411","9.749685","stand up","0"
"68647821972162","3","0.078092635","-0.07809219","9.754476","stand up","0"
"68647841837839","3","0.07330167","-0.07569671","9.766453","stand up","0"
"68647861744974","3","0.09007007","-0.08288315","9.764058","stand up","0"
"68647881666901","3","0.06851077","-0.08048767","9.764058","stand up","0"
"68647901573985","3","0.09007007","-0.07569671","9.768848","stand up","0"
"68647921478255","3","0.09725648","-0.08527863","9.75208","stand up","0"
"68647941385339","3","0.104442954","-0.08048767","9.756871","stand up","0"
"68647961283151","3","0.09007007","-0.08048767","9.771244","stand up","0"
"68647981190235","3","0.080488145","-0.08767411","9.780826","stand up","0"
"68648001093516","3","0.080488145","-0.09246507","9.761662","stand up","0"
"68648021000599","3","0.07090622","-0.08527863","9.761662","stand up","0"
"68648040902891","3","0.07090622","-0.073301226","9.764058","stand up","0"
"68648060809974","3","0.080488145","-0.08288315","9.778431","stand up","0"
"68648080718776","3","0.078092635","-0.08288315","9.754476","stand up","0"
"68648100625808","3","0.07090622","-0.08767411","9.749685","stand up","0"
"68648120487526","3","0.07090622","-0.073301226","9.77364","stand up","0"
"68648140394558","3","0.07569718","-0.08527863","9.768848","stand up","0"
"68648160338880","3","0.09725648","-0.08767411","9.778431","stand up","0"
"68648180245964","3","0.08527905","-0.070905745","9.768848","stand up","0"
"68648200150130","3","0.09246552","-0.08527863","9.756871","stand up","0"
"68648220057214","3","0.082883656","-0.09006956","9.766453","stand up","0"
"68648239962266","3","0.07569718","-0.08527863","9.756871","stand up","0"
"68648259869401","3","0.080488145","-0.070905745","9.778431","stand up","0"
"68648279774714","3","0.09007007","-0.08527863","9.776035","stand up","0"
"68648299681797","3","0.09246552","-0.07809219","9.764058","stand up","0"
"68648319583724","3","0.09246552","-0.08048767","9.749685","stand up","0"
"68648339490808","3","0.07330167","-0.09246507","9.74729","stand up","0"
"68648359402474","3","0.082883656","-0.08288315","9.771244","stand up","0"
"68648379309558","3","0.09486103","-0.08048767","9.766453","stand up","0"
"68648399232370","3","0.09486103","-0.09006956","9.768848","stand up","0"
"68648419139453","3","0.078092635","-0.08288315","9.778431","stand up","0"
"68648439055183","3","0.08527905","-0.08288315","9.761662","stand up","0"
"68648458962214","3","0.09007007","-0.08048767","9.771244","stand up","0"
"68648478837630","3","0.07090622","-0.07569671","9.766453","stand up","0"
"68648498744714","3","0.08527905","-0.07569671","9.75208","stand up","0"
"68648518674297","3","0.082883656","-0.08288315","9.749685","stand up","0"
"68648538581380","3","0.07569718","-0.08048767","9.771244","stand up","0"
"68648558454089","3","0.08527905","-0.08048767","9.756871","stand up","0"
"68648578361172","3","0.09486103","-0.07569671","9.759267","stand up","0"
"68648598288308","3","0.09246552","-0.08288315","9.768848","stand up","0"
"68648618195391","3","0.09246552","-0.09006956","9.754476","stand up","0"
"68648638061380","3","0.09007007","-0.07569671","9.778431","stand up","0"
"68648657968412","3","0.082883656","-0.08288315","9.766453","stand up","0"
"68648677872058","3","0.082883656","-0.07809219","9.749685","stand up","0"
"68648697779141","3","0.06851077","-0.073301226","9.776035","stand up","0"
"68648717705235","3","0.078092635","-0.08527863","9.75208","stand up","0"
"68648737612318","3","0.06611526","-0.08527863","9.756871","stand up","0"
"68648757512578","3","0.09246552","-0.08767411","9.75208","stand up","0"
"68648777419662","3","0.09725648","-0.09246507","9.754476","stand up","0"
"68648797327214","3","0.08767456","-0.08048767","9.764058","stand up","0"
"68648817233880","3","0.082883656","-0.08048767","9.771244","stand up","0"
"68648837142526","3","0.09486103","-0.09246507","9.756871","stand up","0"
"68648857049245","3","0.09007007","-0.08048767","9.75208","stand up","0"
"68648876949818","3","0.09246552","-0.099651486","9.771244","stand up","0"
"68648896856485","3","0.082883656","-0.08288315","9.776035","stand up","0"
"68648916761276","3","0.08527905","-0.073301226","9.768848","stand up","0"
"68648936667995","3","0.082883656","-0.08527863","9.764058","stand up","0"
"68648956540026","3","0.08767456","-0.08767411","9.761662","stand up","0"
"68648976446693","3","0.09246552","-0.08527863","9.761662","stand up","0"
"68648996346745","3","0.09725648","-0.08527863","9.754476","stand up","0"
"68649016253412","3","0.07569718","-0.08048767","9.749685","stand up","0"
"68649036170443","3","0.08527905","-0.08527863","9.759267","stand up","0"
"68649056077162","3","0.08527905","-0.08288315","9.754476","stand up","0"
"68649075990183","3","0.08527905","-0.08288315","9.776035","stand up","0"
"68649095896849","3","0.080488145","-0.07809219","9.749685","stand up","0"
"68649115788568","3","0.078092635","-0.070905745","9.742498","stand up","0"
"68649135695287","3","0.09725648","-0.094860554","9.744894","stand up","0"
"68649155599505","3","0.082883656","-0.08527863","9.768848","stand up","0"
"68649175506172","3","0.08527905","-0.08048767","9.759267","stand up","0"
"68649195418672","3","0.080488145","-0.08527863","9.761662","stand up","0"
"68649215325339","3","0.09246552","-0.08527863","9.768848","stand up","0"
"68649235196380","3","0.09486103","-0.06611478","9.764058","stand up","0"
"68649255103047","3","0.08767456","-0.08527863","9.74729","stand up","0"
"68649275027526","3","0.082883656","-0.09246507","9.768848","stand up","0"
"68649294934193","3","0.09007007","-0.08527863","9.74729","stand up","0"
"68649314835495","3","0.08767456","-0.08288315","9.768848","stand up","0"
"68649334742162","3","0.09246552","-0.08288315","9.766453","stand up","0"
"68649354648568","3","0.08527905","-0.08048767","9.756871","stand up","0"
"68649374555287","3","0.07569718","-0.08527863","9.761662","stand up","0"
"68649394472422","3","0.07330167","-0.08048767","9.771244","stand up","0"
"68649414379141","3","0.09246552","-0.073301226","9.766453","stand up","0"
"68649434254193","3","0.09007007","-0.09006956","9.771244","stand up","0"
"68649474083880","3","0.07330167","-0.073301226","9.75208","stand up","1"
"68649493990547","3","0.09007007","-0.09006956","9.768848","none","1"
"68649513845912","3","0.082883656","-0.09006956","9.776035","none","1"
"68649533752630","3","0.07330167","-0.08288315","9.77364","none","1"
"68649553699610","3","0.08767456","-0.09246507","9.766453","none","1"
"68649573606328","3","0.078092635","-0.08767411","9.754476","none","1"
"68649593486068","3","0.06851077","-0.097256005","9.766453","none","1"
"68649613392787","3","0.08767456","-0.09246507","9.768848","none","1"
"68649633310755","3","0.09246552","-0.08527863","9.778431","none","1"
"68649653217474","3","0.09486103","-0.09006956","9.776035","none","1"
"68649673132110","3","0.09246552","-0.09246507","9.744894","none","1"
"68649693038828","3","0.09486103","-0.07569671","9.754476","none","1"
"68649712951016","3","0.09007007","-0.08048767","9.761662","none","1"
"68649732857683","3","0.080488145","-0.07569671","9.749685","none","1"
"68649752750599","3","0.082883656","-0.08767411","9.780826","none","1"
"68649772657318","3","0.078092635","-0.09006956","9.761662","none","1"
"68649792567891","3","0.082883656","-0.073301226","9.754476","none","1"
"68649812474610","3","0.09246552","-0.08288315","9.759267","none","1"
"68649832383672","3","0.082883656","-0.09006956","9.77364","none","1"
"68649852290391","3","0.080488145","-0.08288315","9.77364","none","1"
"68649872166589","3","0.08767456","-0.08527863","9.75208","none","1"
"68649892073255","3","0.07569718","-0.07809219","9.768848","none","1"
"68649911999505","3","0.078092635","-0.08767411","9.75208","none","1"
"68649931906172","3","0.082883656","-0.08527863","9.761662","none","1"
"68649951838203","3","0.09725648","-0.070905745","9.771244","none","1"
"68649971744870","3","0.08527905","-0.08048767","9.77364","none","1"
"68649991664089","3","0.09725648","-0.09006956","9.768848","none","1"
"68650011570755","3","0.08767456","-0.08767411","9.790408","none","1"
"68650031451433","3","0.080488145","-0.08288315","9.768848","none","1"
"68650051358099","3","0.08527905","-0.073301226","9.754476","none","1"
"68650071280912","3","0.08767456","-0.08527863","9.759267","none","1"
"68650091187630","3","0.09725648","-0.08288315","9.780826","none","1"
"68650111101016","3","0.09725648","-0.08048767","9.771244","none","1"
"68650131007683","3","0.09246552","-0.08527863","9.766453","none","1"
"68650150879766","3","0.09725648","-0.08288315","9.771244","none","1"
"68650170786433","3","0.082883656","-0.08527863","9.756871","none","1"
"68650190722839","3","0.08527905","-0.07809219","9.75208","none","1"
"68650210629505","3","0.082883656","-0.08288315","9.776035","none","1"
"68650230518672","3","0.09486103","-0.08048767","9.778431","none","1"
"68650250425339","3","0.08527905","-0.08767411","9.764058","none","1"
"68650270322891","3","0.08527905","-0.094860554","9.75208","none","1"
"68650290229610","3","0.09246552","-0.094860554","9.77364","none","1"
"68650310138568","3","0.080488145","-0.08288315","9.771244","none","1"
"68650330045235","3","0.078092635","-0.09246507","9.780826","none","1"
"68650349922370","3","0.08527905","-0.09006956","9.783222","none","1"
"68650369829089","3","0.09246552","-0.07569671","9.776035","none","1"
"68650389744610","3","0.08767456","-0.08767411","9.778431","none","1"
"68650409651328","3","0.09486103","-0.08288315","9.75208","none","1"
"68650429562266","3","0.09007007","-0.070905745","9.756871","none","1"
"68650449468933","3","0.08767456","-0.08048767","9.766453","none","1"
"68650469373828","3","0.080488145","-0.073301226","9.778431","none","1"
"68650489280391","3","0.07569718","-0.07809219","9.74729","none","1"
"68650509169870","3","0.09007007","-0.08527863","9.77364","none","1"
"68650529076380","3","0.09486103","-0.08288315","9.780826","none","1"
"68650548993047","3","0.09246552","-0.07569671","9.778431","none","1"
"68650568899610","3","0.08767456","-0.08767411","9.754476","none","1"
"68650588799974","3","0.08527905","-0.09246507","9.771244","none","1"
"68650608706485","3","0.09007007","-0.08767411","9.761662","none","1"
"68650628619610","3","0.09246552","-0.10204697","9.77364","none","1"
"68650648526172","3","0.09246552","-0.094860554","9.778431","none","1"
"68650668428776","3","0.07569718","-0.08767411","9.778431","none","1"
"68650688335339","3","0.078092635","-0.073301226","9.766453","none","1"
"68650708250964","3","0.082883656","-0.06611478","9.74729","none","1"
"68650728157526","3","0.09486103","-0.08767411","9.771244","none","1"
"68650748031641","3","0.08527905","-0.09246507","9.771244","none","1"
"68650767938151","3","0.078092635","-0.09006956","9.749685","none","1"
"68650787853360","3","0.09246552","-0.08288315","9.768848","none","1"
"68650807759922","3","0.07569718","-0.09006956","9.756871","none","1"
"68650827675339","3","0.078092635","-0.099651486","9.764058","none","1"
"68650847581849","3","0.09725648","-0.08288315","9.764058","none","1"
"68650867494922","3","0.09246552","-0.08767411","9.776035","none","1"
"68650887401433","3","0.09007007","-0.09006956","9.754476","none","1"
"68650907325964","3","0.08527905","-0.08288315","9.756871","none","1"
"68650927232526","3","0.07569718","-0.09006956","9.764058","none","1"
"68650947113308","3","0.082883656","-0.08288315","9.778431","none","1"
"68650967019818","3","0.09007007","-0.08048767","9.74729","none","1"
"68650986953412","3","0.08767456","-0.08048767","9.77364","none","1"
"68651006859974","3","0.080488145","-0.094860554","9.790408","none","1"
"68651026769870","3","0.082883656","-0.097256005","9.778431","none","1"
"68651046676433","3","0.078092635","-0.08288315","9.77364","none","1"
"68651066573880","3","0.09246552","-0.097256005","9.756871","none","1"
"68651086480443","3","0.09965193","-0.08767411","9.759267","none","1"
"68651106384558","3","0.10204744","-0.08527863","9.766453","none","1"
"68651126291068","3","0.078092635","-0.09246507","9.761662","none","1"
"68651146183203","3","0.080488145","-0.08048767","9.759267","none","1"
"68651166089766","3","0.082883656","-0.070905745","9.766453","none","1"
"68651186006849","3","0.08527905","-0.09006956","9.756871","none","1"
"68651205913360","3","0.09486103","-0.08767411","9.766453","none","1"
"68651225818620","3","0.09725648","-0.08288315","9.74729","none","1"
"68651245725130","3","0.078092635","-0.08767411","9.756871","none","1"
"68651265639558","3","0.082883656","-0.08048767","9.771244","none","1"
"68651285546120","3","0.09007007","-0.08048767","9.77364","none","1"
"68651305431537","3","0.09486103","-0.08288315","9.768848","none","1"
"68651325338047","3","0.08767456","-0.099651486","9.764058","none","1"
"68651345234714","3","0.078092635","-0.08767411","9.778431","none","1"
"68651365141276","3","0.06851077","-0.08048767","9.771244","none","1"
"68651385077318","3","0.08527905","-0.08288315","9.785617","none","1"
"68651404983880","3","0.082883656","-0.08767411","9.776035","none","1"
"68651424877578","3","0.078092635","-0.08288315","9.761662","none","1"
"68651444784089","3","0.082883656","-0.08048767","9.754476","none","1"
"68651464686016","3","0.09246552","-0.08767411","9.776035","none","1"
"68651484592578","3","0.08527905","-0.09006956","9.780826","none","1"
"68651504507891","3","0.09007007","-0.073301226","9.756871","none","1"
"68651524414401","3","0.104442954","-0.08767411","9.756871","none","1"
"68651544285495","3","0.08527905","-0.10683793","9.783222","none","1"
"68651564192005","3","0.08527905","-0.094860554","9.771244","none","1"
"68651584117370","3","0.09486103","-0.08048767","9.778431","none","1"
"68651604023828","3","0.07090622","-0.073301226","9.771244","none","1"
"68651623930808","3","0.078092635","-0.094860554","9.780826","none","1"
"68651643837266","3","0.08767456","-0.08767411","9.766453","none","1"
"68651663739037","3","0.08767456","-0.08288315","9.761662","none","1"
"68651683645495","3","0.09246552","-0.08288315","9.754476","none","1"
"68651703554766","3","0.09246552","-0.09246507","9.778431","none","1"
"68651723461224","3","0.082883656","-0.09006956","9.771244","none","1"
"68651743370860","3","0.07569718","-0.09246507","9.768848","none","1"
"68651763277370","3","0.078092635","-0.08527863","9.764058","none","1"
"68651783198412","3","0.09486103","-0.094860554","9.761662","none","1"
"68651803104922","3","0.082883656","-0.094860554","9.766453","none","1"
"68651822992526","3","0.09246552","-0.097256005","9.778431","none","1"
"68651842899037","3","0.078092635","-0.08767411","9.749685","none","1"
"68651862805808","3","0.07569718","-0.08767411","9.77364","none","1"
"68651882712266","3","0.09007007","-0.08767411","9.77364","none","1"
"68651902621953","3","0.09486103","-0.08767411","9.771244","none","1"
"68651922528464","3","0.08527905","-0.073301226","9.776035","none","1"
"68651942400339","3","0.07569718","-0.070905745","9.761662","none","1"
"68651962306849","3","0.09486103","-0.07809219","9.754476","none","1"
"68651982242787","3","0.08767456","-0.08767411","9.778431","none","1"
"68652002149297","3","0.08527905","-0.070905745","9.783222","none","1"
"68652022057214","3","0.09007007","-0.08527863","9.764058","none","1"
"68652041963672","3","0.082883656","-0.09246507","9.764058","none","1"
"68652061871068","3","0.08767456","-0.08527863","9.766453","none","1"
"68652081777578","3","0.09486103","-0.09006956","9.761662","none","1"
"68652101683308","3","0.09007007","-0.08767411","9.771244","none","1"
"68652121589818","3","0.09007007","-0.08288315","9.778431","none","1"
"68652141478985","3","0.09007007","-0.07569671","9.756871","none","1"
"68652161385547","3","0.07330167","-0.08767411","9.780826","none","1"
"68652181329714","3","0.080488145","-0.08767411","9.77364","none","1"
"68652201236276","3","0.08767456","-0.08767411","9.766453","none","1"
"68652221127422","3","0.078092635","-0.09246507","9.776035","none","1"
"68652241033880","3","0.08527905","-0.07809219","9.761662","none","1"
"68652260942891","3","0.09007007","-0.08527863","9.778431","none","1"
"68652280849349","3","0.09246552","-0.08527863","9.778431","none","1"
"68652300769349","3","0.080488145","-0.08048767","9.749685","none","1"
"68652320675860","3","0.104442954","-0.06611478","9.764058","none","1"
"68652340574766","3","0.08527905","-0.08288315","9.754476","none","1"
"68652360481276","3","0.09007007","-0.09246507","9.759267","none","1"
"68652380398464","3","0.09246552","-0.09006956","9.768848","none","1"
"68652400305026","3","0.08767456","-0.073301226","9.780826","none","1"
"68652420211693","3","0.08527905","-0.08527863","9.75208","none","1"
"68652440118203","3","0.09007007","-0.08048767","9.761662","none","1"
"68652460000808","3","0.104442954","-0.08048767","9.790408","none","1"
"68652479907318","3","0.080488145","-0.08527863","9.776035","none","1"
"68652499818672","3","0.07330167","-0.08527863","9.761662","none","1"
"68652519725183","3","0.09007007","-0.08288315","9.756871","none","1"
"68652539658672","3","0.082883656","-0.08048767","9.75208","none","1"
"68652559565235","3","0.080488145","-0.08767411","9.77364","none","1"
"68652579447735","3","0.080488145","-0.08767411","9.778431","none","1"
"68652599354297","3","0.082883656","-0.08288315","9.771244","none","1"
"68652619285235","3","0.078092635","-0.07569671","9.778431","none","1"
"68652639191797","3","0.08527905","-0.08288315","9.761662","none","1"
"68652659087005","3","0.09246552","-0.08767411","9.768848","none","1"
"68652678993568","3","0.08527905","-0.097256005","9.759267","none","1"
"68652698917058","3","0.078092635","-0.097256005","9.766453","none","1"
"68652718823620","3","0.09007007","-0.08288315","9.768848","none","1"
"68652738734558","3","0.09246552","-0.08767411","9.75208","none","1"
"68652758641172","3","0.07569718","-0.08767411","9.771244","none","1"
"68652778530964","3","0.080488145","-0.08048767","9.754476","none","1"
"68652798437578","3","0.104442954","-0.08288315","9.761662","none","1"
"68652818332422","3","0.08767456","-0.094860554","9.764058","none","1"
"68652838239037","3","0.058928847","-0.08527863","9.780826","none","1"
"68652858176745","3","0.06611526","-0.08767411","9.771244","none","1"
"68652878083308","3","0.08527905","-0.08767411","9.778431","none","1"
"68652897987422","3","0.09965193","-0.08288315","9.761662","none","1"
"68652917893985","3","0.09486103","-0.08527863","9.77364","none","1"
"68652937772787","3","0.09007007","-0.08288315","9.778431","none","1"
"68652957679401","3","0.09007007","-0.08048767","9.785617","none","1"
"68652977599818","3","0.08527905","-0.06611478","9.766453","none","1"
"68652997506380","3","0.08527905","-0.094860554","9.771244","none","1"
"68653017392839","3","0.08767456","-0.09246507","9.761662","none","1"
"68653037299349","3","0.09246552","-0.09246507","9.754476","none","1"
"68653057214245","3","0.08767456","-0.094860554","9.780826","none","1"
"68653077120808","3","0.082883656","-0.094860554","9.756871","none","1"
"68653097033203","3","0.08767456","-0.08767411","9.771244","none","1"
"68653116939766","3","0.080488145","-0.08288315","9.742498","none","1"
"68653136840495","3","0.078092635","-0.08048767","9.759267","none","1"
"68653156747110","3","0.082883656","-0.08527863","9.7880125","none","1"
"68653176661380","3","0.08767456","-0.08288315","9.768848","none","1"
"68653196567995","3","0.078092635","-0.099651486","9.74729","none","1"
"68653216487370","3","0.09246552","-0.08767411","9.768848","none","1"
"68653236393933","3","0.104442954","-0.08048767","9.77364","none","1"
"68653256302630","3","0.09007007","-0.08767411","9.771244","none","1"
"68653276209193","3","0.078092635","-0.094860554","9.77364","none","1"
"68653296098047","3","0.09007007","-0.097256005","9.766453","none","1"
"68653316004662","3","0.09246552","-0.08767411","9.764058","none","1"
"68653335915130","3","0.09725648","-0.07569671","9.768848","none","1"
"68653355821693","3","0.080488145","-0.09246507","9.768848","none","1"
"68653375744349","3","0.07569718","-0.09006956","9.768848","none","1"
"68653395650912","3","0.09007007","-0.08527863","9.780826","none","1"
"68653415566433","3","0.09486103","-0.097256005","9.756871","none","1"
"68653435472995","3","0.08527905","-0.08048767","9.764058","sit down","1"
"68653455350808","3","0.07090622","-0.08767411","9.764058","sit down","1"
"68653475257318","3","0.08527905","-0.11402434","9.77364","sit down","1"
"68653495184974","3","0.08767456","-0.08288315","9.780826","sit down","1"
"68653515091537","3","0.078092635","-0.08288315","9.768848","sit down","1"
"68653534997005","3","0.08767456","-0.099651486","9.761662","sit down","1"
"68653554903568","3","0.09486103","-0.094860554","9.766453","sit down","1"
"68653574807839","3","0.09246552","-0.08767411","9.790408","sit down","1"
"68653594714401","3","0.07569718","-0.08527863","9.776035","sit down","1"
"68653614613308","3","0.078092635","-0.08527863","9.7353115","sit down","1"
"68653634519922","3","0.08527905","-0.08288315","9.768848","sit down","1"
"68653654410808","3","0.09486103","-0.08767411","9.7880125","sit down","1"
"68653674317422","3","0.09725648","-0.07569671","9.740103","sit down","1"
"68653694241953","3","0.08527905","-0.09246507","9.754476","sit down","1"
"68653714148568","3","0.09725648","-0.097256005","9.759267","sit down","1"
"68653734053047","3","0.09486103","-0.08527863","9.754476","sit down","1"
"68653753959662","3","0.082883656","-0.073301226","9.771244","sit down","1"
"68653773848985","3","0.09725648","-0.073301226","9.764058","sit down","1"
"68653793755547","3","0.09007007","-0.10204697","9.764058","sit down","1"
"68653813686589","3","0.08767456","-0.10204697","9.766453","sit down","1"
"68653833593151","3","0.08767456","-0.08767411","9.77364","sit down","1"
"68653853479662","3","0.09965193","-0.07569671","9.764058","sit down","1"
"68653873386224","3","0.09007007","-0.07569671","9.74729","sit down","1"
"68653893294714","3","0.09007007","-0.09246507","9.77364","sit down","1"
"68653913201276","3","0.080488145","-0.097256005","9.761662","sit down","1"
"68653933116328","3","0.09246552","-0.097256005","9.761662","sit down","1"
"68653953022943","3","0.08767456","-0.08527863","9.75208","sit down","1"
"68653972911224","3","0.09007007","-0.094860554","9.768848","sit down","1"
"68653992817787","3","0.09725648","-0.094860554","9.768848","sit down","1"
"68654012743203","3","0.08767456","-0.097256005","9.754476","sit down","1"
"68654032649818","3","0.09007007","-0.09006956","9.754476","sit down","1"
"68654052549766","3","0.080488145","-0.097256005","9.740103","sit down","1"
"68654072456328","3","0.06851077","-0.09246507","9.771244","sit down","1"
"68654092350339","3","0.07330167","-0.08527863","9.790408","sit down","1"
"68654112256901","3","0.08527905","-0.08767411","9.771244","sit down","1"
"68654132152214","3","0.078092635","-0.08527863","9.754476","sit down","1"
"68654152058776","3","0.08767456","-0.10204697","9.766453","sit down","1"
"68654171985964","3","0.09486103","-0.073301226","9.783222","sit down","1"
"68654191892578","3","0.09007007","-0.07569671","9.754476","sit down","1"
"68654211787839","3","0.09007007","-0.094860554","9.759267","sit down","1"
"68654231694401","3","0.09246552","-0.068510264","9.783222","sit down","1"
"68654251602891","3","0.09007007","-0.09006956","9.749685","sit down","1"
"68654271509505","3","0.09486103","-0.10444245","9.689797","sit down","1"
"68654291403516","3","0.10204744","-0.07809219","9.776035","sit down","1"
"68654311310078","3","0.07330167","-0.06371933","9.82634","sit down","1"
"68654331224870","3","0.04216051","-0.09006956","9.732917","sit down","1"
"68654351131485","3","0.030183077","-0.08527863","9.780826","sit down","1"
"68654371032787","3","0.046951473","-0.08767411","9.785617","sit down","1"
"68654390939401","3","0.104442954","-0.07569671","9.728126","sit down","1"
"68654410834662","3","0.1451661","-0.07809219","9.75208","sit down","1"
"68654430741276","3","0.15474796","-0.070905745","9.778431","sit down","1"
"68654450645235","3","0.13558412","-0.10683793","9.776035","sit down","1"
"68654470551797","3","0.0613243","-0.10683793","9.723335","sit down","1"
"68654490426016","3","0.0110192895","-0.049346447","9.7353115","sit down","1"
"68654510332630","3","0.06851077","-0.05653289","9.785617","sit down","1"
"68654530275808","3","0.14037514","-0.097256005","9.790408","sit down","1"
"68654550182370","3","0.106838405","-0.10683793","9.720939","sit down","1"
"68654570072474","3","0.06371975","-0.08288315","9.754476","sit down","1"
"68654589979089","3","0.054137886","-0.07569671","9.783222","sit down","1"
"68654609882422","3","0.07569718","-0.070905745","9.77364","sit down","1"
"68654629788776","3","0.09246552","-0.08767411","9.744894","sit down","1"
"68654649703360","3","0.12600225","-0.10683793","9.761662","sit down","1"
"68654669609662","3","0.11162937","-0.08048767","9.730521","sit down","1"
"68654689502005","3","0.082883656","-0.08288315","9.768848","sit down","1"
"68654709408360","3","0.08527905","-0.09246507","9.768848","sit down","1"
"68654729313308","3","0.07090622","-0.09246507","9.768848","sit down","1"
"68654749219610","3","0.078092635","-0.08048767","9.759267","sit down","1"
"68654769131433","3","0.11162937","-0.08048767","9.766453","sit down","1"
"68654789037787","3","0.11402482","-0.068510264","9.730521","sit down","1"
"68654808921433","3","0.10204744","-0.099651486","9.737708","sit down","1"
"68654828827735","3","0.078092635","-0.08767411","9.761662","sit down","1"
"68654848739818","3","0.07330167","-0.06611478","9.764058","sit down","1"
"68654868646120","3","0.09486103","-0.05413738","9.776035","sit down","1"
"68654888565547","3","0.078092635","-0.05892834","9.778431","sit down","1"
"68654908471901","3","0.07090622","-0.05653289","9.77364","sit down","1"
"68654928362058","3","0.039765","0.008145064","9.766453","sit down","1"
"68654948268412","3","-0.0033535957","-0.008623332","9.785617","sit down","1"
"68654968175235","3","-0.01293546","-0.037369043","9.780826","sit down","1"
"68654988081537","3","0.07330167","-0.044555485","9.720939","sit down","1"
"68655007991693","3","0.14277059","-0.08048767","9.687403","sit down","1"
"68655027897995","3","0.11402482","-0.05413738","9.680216","sit down","1"
"68655047798047","3","0.10204744","0.07042748","9.7089615","sit down","1"
"68655067704349","3","0.12600225","0.11594157","9.740103","sit down","1"
"68655087620078","3","0.12600225","0.094382286","9.764058","sit down","1"
"68655107526433","3","0.0110192895","-0.006227821","9.67303","sit down","1"
"68655127431901","3","0.020601213","-0.18588868","9.579606","sit down","1"
"68655147338203","3","0.018205702","-0.33680388","9.67303","sit down","1"
"68655167241745","3","0.12600225","-0.42304108","9.819154","sit down","1"
"68655187148047","3","0.22182137","-0.5835382","10.010792","sit down","1"
"68655207055703","3","0.19547111","-0.6745664","10.185662","sit down","1"
"68655226962058","3","0.04216051","-0.6386341","10.02277","sit down","1"
"68655246876068","3","0.082883656","-0.42064562","9.395154","sit down","1"
"68655266782422","3","0.058928847","-0.27212593","9.512533","sit down","1"
"68655286685808","3","0.26973093","-0.24817112","9.886227","sit down","1"
"68655306592110","3","0.3056631","-0.05653289","9.883832","sit down","1"
"68655326486641","3","0.06611526","0.027308851","9.728126","sit down","1"
"68655346392995","3","0.039765","-0.13558367","9.680216","sit down","1"
"68655366280078","3","0.049346924","-0.24817112","9.7353115","sit down","1"
"68655386186433","3","0.12360674","-0.12600175","9.816758","sit down","1"
"68655406126380","3","0.29129028","-0.068510264","9.835922","sit down","1"
"68655426032735","3","0.28649938","-0.10683793","9.778431","sit down","1"
"68655445930495","3","0.1882847","-0.10923341","9.7353115","sit down","1"
"68655465836849","3","0.09246552","-0.08048767","9.730521","sit down","1"
"68655485732005","3","0.080488145","-0.13558367","9.740103","sit down","1"
"68655505638308","3","0.149957","-0.16672489","9.737708","sit down","1"
"68655525563255","3","0.14277059","-0.07569671","9.706566","sit down","1"
"68655545469558","3","0.14277059","-0.027787149","9.728126","sit down","1"
"68655565366797","3","0.09007007","-0.094860554","9.761662","sit down","1"
"68655585273151","3","0.046951473","-0.18349329","9.795198","sit down","1"
"68655605176172","3","0.06851077","-0.1739113","9.802386","sit down","1"
"68655625082526","3","0.10204744","-0.152352","9.730521","sit down","1"
"68655644989766","3","0.10204744","-0.17151585","9.704171","sit down","1"
"68655664896068","3","0.051742375","-0.21942547","9.749685","sit down","1"
"68655684808724","3","0.049346924","-0.22182086","9.7880125","sit down","1"
"68655704715026","3","0.06611526","-0.22661188","9.785617","sit down","1"
"68655724621537","3","0.049346924","-0.25296214","9.74729","sit down","1"
"68655744527839","3","0.078092635","-0.2817079","9.7880125","sit down","1"
"68655764428776","3","0.109233916","-0.26973042","9.821548","sit down","1"
"68655784335078","3","0.14277059","-0.24817112","9.778431","sit down","1"
"68655804270443","3","0.13318872","-0.23858926","9.742498","sit down","1"
"68655824176797","3","0.11881584","-0.20026156","9.764058","sit down","1"
"68655844074037","3","0.11162937","-0.17151585","9.75208","sit down","1"
"68655863980339","3","0.12360674","-0.16193393","9.776035","sit down","1"
"68655883899505","3","0.13558412","-0.18588868","9.740103","sit down","1"
"68655903805860","3","0.15953892","-0.17870227","9.69938","sit down","1"
"68655923719558","3","0.13079321","-0.152352","9.737708","sit down","1"
"68655943625912","3","0.12360674","-0.13558367","9.768848","sit down","1"
"68655963521328","3","0.104442954","-0.12839723","9.75208","sit down","1"
"68655983427630","3","0.11402482","-0.13797912","9.732917","sit down","1"
"68656003355183","3","0.11162937","-0.14037463","9.764058","sit down","1"
"68656023261537","3","0.11402482","-0.14995655","9.766453","sit down","1"
"68656043171276","3","0.104442954","-0.1691204","9.737708","sit down","1"
"68656063077578","3","0.09965193","-0.1691204","9.737708","sit down","1"
"68656082986797","3","0.09725648","-0.15953842","9.744894","sit down","1"
"68656102893099","3","0.09007007","-0.17870227","9.761662","sit down","1"
"68656122810964","3","0.09246552","-0.19786611","9.785617","sit down","1"
"68656142717318","3","0.09965193","-0.20744804","9.766453","sit down","1"
"68656162631224","3","0.106838405","-0.20744804","9.756871","sit down","1"
"68656182537578","3","0.09965193","-0.20984349","9.764058","sit down","1"
"68656202436380","3","0.09725648","-0.18349329","9.764058","sit down","1"
"68656222342735","3","0.08527905","-0.16672489","9.780826","sit down","1"
"68656242276120","3","0.08767456","-0.1691204","9.809572","sit down","1"
"68656262182787","3","0.12121129","-0.16193393","9.785617","sit down","1"
"68656282090495","3","0.14037514","-0.1739113","9.740103","sit down","1"
"68656301997162","3","0.11642033","-0.1691204","9.737708","sit down","1"
"68656321919349","3","0.11402482","-0.16672489","9.749685","sit down","1"
"68656341826016","3","0.1283977","-0.14995655","9.75208","sit down","1"
"68656361734714","3","0.13797963","-0.14516556","9.768848","sit down","1"
"68656381641380","3","0.12360674","-0.17151585","9.771244","sit down","1"
"68656401543203","3","0.10204744","-0.20026156","9.754476","sit down","1"
"68656421449870","3","0.09965193","-0.19786611","9.740103","sit down","1"
"68656441362943","3","0.08767456","-0.18349329","9.737708","sit down","1"
"68656461269610","3","0.109233916","-0.16672489","9.761662","sit down","1"
"68656481201276","3","0.12360674","-0.1739113","9.771244","sit down","1"
"68656501107943","3","0.12121129","-0.1691204","9.754476","sit down","1"
"68656521005651","3","0.12360674","-0.18109778","9.74729","sit down","1"
"68656540912318","3","0.12360674","-0.17151585","9.72573","sit down","1"
"68656560823828","3","0.11642033","-0.1739113","9.771244","sit down","1"
"68656580730547","3","0.11162937","-0.1691204","9.795198","sit down","1"
"68656600664662","3","0.12121129","-0.16432944","9.768848","sit down","1"
"68656620571328","3","0.11881584","-0.20026156","9.764058","sit down","1"
"68656640469610","3","0.08767456","-0.17870227","9.7353115","sit down","1"
"68656660376276","3","0.12121129","-0.1691204","9.737708","sit down","1"
"68656680287422","3","0.09725648","-0.16672489","9.771244","sit down","1"
"68656700194089","3","0.09246552","-0.15953842","9.776035","sit down","1"
"68656720098464","3","0.09007007","-0.16193393","9.754476","sit down","1"
"68656740005130","3","0.09486103","-0.17151585","9.740103","sit down","1"
"68656759922370","3","0.12600225","-0.17870227","9.759267","sit down","1"
"68656779829037","3","0.13558412","-0.16432944","9.754476","sit down","1"
"68656799740547","3","0.12360674","-0.17870227","9.756871","sit down","1"
"68656819647214","3","0.09965193","-0.1906797","9.764058","sit down","1"
"68656839568151","3","0.09246552","-0.18349329","9.740103","sit down","1"
"68656859474818","3","0.106838405","-0.18109778","9.737708","sit down","1"
"68656879367214","3","0.11881584","-0.19307515","9.749685","sit down","1"
"68656899273880","3","0.104442954","-0.1739113","9.754476","sit down","1"
"68656919188516","3","0.09725648","-0.16672489","9.756871","sit down","1"
"68656939095183","3","0.104442954","-0.16672489","9.768848","sit down","1"
"68656959013464","3","0.12600225","-0.1739113","9.742498","sit down","1"
"68656978920130","3","0.11881584","-0.17870227","9.74729","sit down","1"
"68656998828933","3","0.12121129","-0.17870227","9.756871","sit down","1"
"68657018735599","3","0.11881584","-0.16432944","9.776035","sit down","1"
"68657038656849","3","0.10204744","-0.18109778","9.778431","sit down","1"
"68657058563516","3","0.13079321","-0.18588868","9.754476","sit down","1"
"68657078475235","3","0.14037514","-0.18828419","9.754476","sit down","1"
"68657098381901","3","0.11162937","-0.1739113","9.766453","sit down","1"
"68657118290808","3","0.10204744","-0.18828419","9.776035","sit down","1"
"68657138197474","3","0.09965193","-0.18588868","9.764058","sit down","1"
"68657158079610","3","0.09007007","-0.1906797","9.761662","sit down","1"
"68657177986276","3","0.104442954","-0.18109778","9.77364","sit down","1"
"68657197918620","3","0.11402482","-0.17870227","9.759267","sit down","1"
"68657217825287","3","0.11162937","-0.19547066","9.749685","sit down","1"
"68657237737058","3","0.11642033","-0.1739113","9.759267","sit down","1"
"68657257643724","3","0.11162937","-0.16432944","9.766453","sit down","1"
"68657277539505","3","0.12121129","-0.1691204","9.77364","sit down","1"
"68657297446224","3","0.13318872","-0.17151585","9.749685","sit down","1"
"68657317368985","3","0.10204744","-0.18109778","9.728126","sit down","1"
"68657337275651","3","0.106838405","-0.18828419","9.749685","sit down","1"
"68657357188516","3","0.09725648","-0.16193393","9.742498","sit down","1"
"68657377095183","3","0.11162937","-0.1691204","9.764058","sit down","1"
"68657396980287","3","0.109233916","-0.1739113","9.790408","sit down","1"
"68657416886953","3","0.09486103","-0.16672489","9.74729","sit down","1"
"68657436821485","3","0.09965193","-0.17151585","9.74729","lay down","1"
"68657456728151","3","0.11642033","-0.17151585","9.759267","lay down","1"
"68657476622630","3","0.11162937","-0.17870227","9.766453","lay down","1"
"68657496529714","3","0.10204744","-0.18828419","9.74729","lay down","1"
"68657516451901","3","0.104442954","-0.16432944","9.766453","lay down","1"
"68657536359037","3","0.11642033","-0.1691204","9.749685","lay down","1"
"68657556275130","3","0.11402482","-0.17151585","9.749685","lay down","1"
"68657576182266","3","0.11642033","-0.15953842","9.764058","lay down","1"
"68657596101068","3","0.11881584","-0.1739113","9.761662","lay down","1"
"68657616008151","3","0.11402482","-0.17151585","9.737708","lay down","1"
"68657635906120","3","0.11162937","-0.16432944","9.749685","lay down","1"
"68657655813203","3","0.11402482","-0.18588868","9.759267","lay down","1"
"68657675735495","3","0.11642033","-0.1691204","9.756871","lay down","1"
"68657695642578","3","0.109233916","-0.1739113","9.768848","lay down","1"
"68657715532683","3","0.109233916","-0.1906797","9.742498","lay down","1"
"68657735439766","3","0.09965193","-0.18349329","9.75208","lay down","1"
"68657755353516","3","0.104442954","-0.17870227","9.737708","lay down","1"
"68657775260599","3","0.11162937","-0.16432944","9.759267","lay down","1"
"68657795161797","3","0.12360674","-0.152352","9.780826","lay down","1"
"68657815068933","3","0.12600225","-0.11881533","9.704171","lay down","1"
"68657834981380","3","0.104442954","-0.17630681","9.75208","lay down","1"
"68657854888516","3","0.09007007","-0.20265707","9.77364","lay down","1"
"68657874803464","3","0.12360674","-0.21463445","9.689797","lay down","1"
"68657894710547","3","0.1283977","-0.26014856","9.718544","lay down","1"
"68657914628620","3","0.082883656","-0.2793124","9.847899","lay down","1"
"68657934535703","3","0.0613243","-0.24577567","9.780826","lay down","1"
"68657954428360","3","0.09007007","-0.17870227","9.675425","lay down","1"
"68657974335495","3","0.09725648","-0.18109778","9.764058","lay down","1"
"68657994255287","3","0.0613243","-0.22421637","9.780826","lay down","1"
"68658014162370","3","0.054137886","-0.21702996","9.778431","lay down","1"
"68658034085235","3","0.082883656","-0.20026156","9.778431","lay down","1"
"68658053992318","3","0.07090622","-0.22182086","9.740103","lay down","1"
"68658073895651","3","0.08767456","-0.20026156","9.730521","lay down","1"
"68658093802787","3","0.12360674","-0.14037463","9.7089615","lay down","1"
"68658113714766","3","0.13079321","-0.17630681","9.7880125","lay down","1"
"68658133621849","3","0.104442954","-0.18588868","9.835922","lay down","1"
"68658153535964","3","0.025392115","-0.039764553","9.732917","lay down","1"
"68658173443047","3","0.046951473","0.017726958","9.77364","lay down","1"
"68658193356953","3","0.09486103","0.0057495534","9.912578","lay down","1"
"68658213264037","3","0.1451661","-0.18349329","9.859877","lay down","1"
"68658233155235","3","0.13797963","-0.20026156","9.613143","lay down","1"
"68658253062318","3","0.20026207","-0.20744804","9.644284","lay down","1"
"68658272974349","3","0.1667254","-0.15953842","9.874249","lay down","1"
"68658292881433","3","0.056533396","-0.13797912","9.804781","lay down","1"
"68658312809505","3","0.058928847","-0.11881533","9.677821","lay down","1"
"68658332716641","3","0.15474796","-0.11402434","9.744894","lay down","1"
"68658352636380","3","0.15714347","-0.06132382","9.843109","lay down","1"
"68658372543516","3","0.1715163","-0.022996157","9.814363","lay down","1"
"68658392452578","3","0.15714347","-0.05653289","9.823945","lay down","1"
"68658412359714","3","0.15474796","-0.17151585","9.792804","lay down","1"
"68658432261641","3","0.22900784","-0.3871089","9.809572","lay down","1"
"68658452168776","3","0.28410387","-0.36554965","9.706566","lay down","1"
"68658472085078","3","0.27691734","-0.31284907","9.531696","lay down","1"
"68658491992214","3","0.0613243","-0.32961747","9.632307","lay down","1"
"68658511908412","3","-0.034494817","-0.322431","9.864668","lay down","1"
"68658531815495","3","-0.0081445575","-0.34638575","9.845504","lay down","1"
"68658551717526","3","0.07569718","-0.22661188","9.69938","lay down","1"
"68658571624610","3","0.1715163","-0.068510264","9.627516","lay down","1"
"68658591546120","3","0.20744848","-0.11641985","9.809572","lay down","1"
"68658611453203","3","0.18349367","-0.262544","9.859877","lay down","1"
"68658631359558","3","0.12360674","-0.2817079","9.75208","lay down","1"
"68658651266641","3","-0.01293546","-0.12121078","9.677821","lay down","1"
"68658671177162","3","-0.0919863","-0.05892834","9.732917","lay down","1"
"68658691084245","3","0.051742375","-0.10923341","9.811967","lay down","1"
"68658710970808","3","0.11642033","-0.10923341","9.761662","lay down","1"
"68658730877891","3","0.11881584","-0.13318819","9.706566","lay down","1"
"68658750820130","3","0.13558412","-0.14277011","9.792804","lay down","1"
"68658770727214","3","0.1451661","-0.06132382","9.776035","lay down","1"
"68658790634453","3","0.209844","-0.07809219","9.716147","lay down","1"
"68658810541537","3","0.22421682","-0.06371933","9.7089615","lay down","1"
"68658830460026","3","0.19307566","-0.06371933","9.780826","lay down","1"
"68658850367110","3","0.078092635","-0.08048767","9.759267","lay down","1"
"68658870271537","3","0.09965193","-0.14037463","9.713753","lay down","1"
"68658890178620","3","0.18349367","-0.13797912","9.720939","lay down","1"
"68658910096953","3","0.14037514","-0.06371933","9.711357","lay down","1"
"68658930004037","3","0.09246552","0.0033540726","9.797595","lay down","1"
"68658949872266","3","0.049346924","0.027308851","9.833527","lay down","1"
"68658969779349","3","-0.032099366","-0.13558367","9.744894","lay down","1"
"68658989713828","3","-0.080008924","-0.45178685","9.639493","lay down","1"
"68659009620964","3","0.1667254","-0.5571879","9.613143","lay down","1"
"68659029552839","3","0.41345966","-0.33919933","9.613143","lay down","1"
"68659049459974","3","0.44460094","-0.19786611","9.7089615","lay down","1"
"68659069344714","3","0.23379874","-0.24338022","9.75208","lay down","1"
"68659089251797","3","0.039765","-0.37752703","9.835922","lay down","1"
"68659109171693","3","0.008623779","-0.29608074","9.893414","lay down","1"
"68659129078776","3","0.10204744","-0.24817112","9.778431","lay down","1"
"68659148991641","3","0.3463863","-0.36794505","9.7089615","lay down","1"
"68659168898776","3","0.54760647","-0.32961747","9.658657","lay down","1"
"68659188789766","3","0.39190042","-0.05892834","9.550859","lay down","1"
"68659208696901","3","0.15235251","0.07282296","9.713753","lay down","1"
"68659228645703","3","0.046951473","0.029704332","9.876645","lay down","1"
"68659248553360","3","0.07090622","-0.022996157","10.195244","lay down","1"
"68659268432891","3","-0.46807644","0.1255235","10.3773","lay down","1"
"68659288340547","3","-0.9208219","0.056054622","9.524509","lay down","1"
"68659308237526","3","-0.106359184","-0.35596767","9.531696","lay down","1"
"68659328145130","3","0.54042006","-0.4134592","10.07547","lay down","1"
"68659348085443","3","0.37752748","-0.094860554","9.488578","lay down","1"
"68659367993099","3","0.2625445","0.036890775","9.244239","lay down","1"
"68659387893412","3","0.17870277","-0.03257811","9.862272","lay down","1"
"68659407801068","3","0.10204744","0.07521844","10.094634","lay down","1"
"68659427704141","3","0.027787626","0.10396418","9.728126","lay down","1"
"68659447611797","3","-0.12073207","-0.06611478","9.474205","lay down","1"
"68659467525183","3","-0.18540996","-0.32722196","9.57242","lay down","1"
"68659487432839","3","-0.04168123","-0.31045356","9.883832","lay down","1"
"68659507350495","3","-0.01293546","-0.17870227","9.922159","lay down","1"
"68659527258151","3","-0.09438181","-0.1307927","9.75208","lay down","1"
"68659547166328","3","-0.027308345","-0.18109778","9.696984","lay down","1"
"68659567073985","3","0.0613243","-0.27212593","9.692194","lay down","1"
"68659586992005","3","0.049346924","-0.31045356","9.670634","lay down","1"
"68659606899662","3","0.11881584","-0.25775304","9.694589","lay down","1"
"68659626796172","3","0.06371975","-0.21702996","9.790408","lay down","1"
"68659646703828","3","-0.080008924","-0.212239","9.821548","lay down","1"
"68659666616537","3","-0.16385067","-0.17630681","9.840713","lay down","1"
"68659686524141","3","-0.29081103","-0.18588868","9.756871","lay down","1"
"68659706437683","3","-0.26446077","-0.25056663","9.644284","lay down","1"
"68659726345287","3","-0.01533097","-0.20026156","9.668239","lay down","1"
"68659746246328","3","0.22661233","-0.18588868","9.7880125","lay down","1"
"68659766153985","3","0.3966912","-0.10444245","9.821548","lay down","1"
"68659786054453","3","0.47095108","-0.03497356","9.867063","lay down","1"
"68659805962110","3","0.45657825","0.07282296","9.936532","lay down","1"
"68659825888933","3","0.14037514","0.02251792","9.883832","lay down","1"
"68659845796589","3","-0.16624612","-0.037369043","9.694589","lay down","1"
"68659865707735","3","-0.17822355","-0.094860554","9.6562605","lay down","1"
"68659885615391","3","-0.12312758","-0.1691204","9.814363","lay down","1"
"68659905509141","3","0.003832817","-0.22661188","9.847899","lay down","1"
"68659925416797","3","0.07090622","-0.027787149","9.680216","lay down","1"
"68659945342839","3","0.046951473","0.15666471","9.687403","lay down","1"
"68659965250443","3","0.051742375","-0.046950966","9.838318","lay down","1"
"68659985135860","3","0.032578588","-0.24577567","9.850295","lay down","1"
"68660005043516","3","0.13558412","-0.22661188","9.637098","lay down","1"
"68660024955703","3","0.31764054","-0.21463445","9.59877","lay down","1"
"68660044863360","3","0.645821","-0.22182086","9.649075","lay down","1"
"68660064754453","3","0.44220543","-0.25775304","9.486182","lay down","1"
"68660084662110","3","-0.96873146","-0.22182086","9.804781","lay down","1"
"68660104588776","3","-1.0956918","0.4249583","10.940238","lay down","1"
"68660124496380","3","-0.40100306","0.1590602","10.513843","lay down","1"
"68660144416224","3","-0.47526285","-0.3200355","8.784307","lay down","1"
"68660164323880","3","0.209844","-0.21463445","9.282567","lay down","1"
"68660184225912","3","0.7033125","-0.11881533","9.931741","lay down","1"
"68660204133568","3","0.35596812","-0.027787149","9.843109","lay down","1"
"68660224032787","3","0.35836363","-0.1906797","9.661052","lay down","1"
"68660243940443","3","0.209844","-0.262544","9.514928","lay down","1"
"68660263860755","3","-0.04407674","-0.15953842","9.57721","lay down","1"
"68660283768464","3","-0.14468688","-0.15474752","9.692194","lay down","1"
"68660303674141","3","-0.12791848","-0.14995655","9.792804","lay down","1"
"68660323581849","3","-0.0057491064","-0.073301226","9.879041","lay down","1"
"68660343500547","3","0.0014373064","-0.049346447","9.876645","lay down","1"
"68660363408203","3","-0.07521796","-0.09006956","9.840713","lay down","1"
"68660383316224","3","-0.13031399","-0.15953842","9.833527","lay down","1"
"68660403223933","3","-0.106359184","-0.13558367","9.780826","lay down","1"
"68660423117058","3","-0.027308345","-0.10204697","9.764058","lay down","1"
"68660443024818","3","0.049346924","-0.09006956","9.776035","lay down","1"
"68660462954818","3","0.08527905","-0.11881533","9.740103","lay down","1"
"68660482862474","3","0.0613243","-0.1691204","9.675425","lay down","1"
"68660502757422","3","0.020601213","-0.152352","9.701775","lay down","1"
"68660522665078","3","0.0062283278","-0.10683793","9.759267","lay down","1"
"68660542562787","3","0.003832817","-0.10204697","9.759267","lay down","1"
"68660562470495","3","0.030183077","-0.09006956","9.778431","lay down","1"
"68660582391068","3","0.04216051","-0.07809219","9.778431","lay down","1"
"68660602298776","3","0.049346924","-0.07809219","9.780826","lay down","1"
"68660622208151","3","-0.0033535957","-0.10683793","9.754476","lay down","1"
"68660642115860","3","-0.022517443","-0.123606294","9.756871","lay down","1"
"68660662021693","3","-0.01293546","-0.13558367","9.776035","lay down","1"
"68660681929401","3","-0.0057491064","-0.14995655","9.768848","lay down","1"
"68660701840235","3","-0.01293546","-0.15953842","9.756871","lay down","1"
"68660721747943","3","0.0062283278","-0.15953842","9.761662","lay down","1"
"68660741666172","3","0.022996664","-0.15474752","9.728126","lay down","1"
"68660761573880","3","0.015810192","-0.14756107","9.7353115","lay down","1"
"68660781453255","3","0.008623779","-0.12600175","9.74729","lay down","1"
"68660801360964","3","0.0014373064","-0.11641985","9.74729","lay down","1"
"68660821293776","3","-9.5808506E-4","-0.097256005","9.756871","lay down","1"
"68660841201485","3","-0.01533097","-0.08767411","9.77364","lay down","1"
"68660861099818","3","-0.01533097","-0.08288315","9.790408","lay down","1"
"68660881007526","3","-9.5808506E-4","-0.09006956","9.77364","lay down","1"
"68660900897683","3","0.015810192","-0.094860554","9.761662","lay down","1"
"68660920805391","3","0.0062283278","-0.12600175","9.72573","lay down","1"
"68660940746276","3","0.0110192895","-0.13558367","9.740103","lay down","1"
"68660960653933","3","0.025392115","-0.14037463","9.754476","lay down","1"
"68660980546224","3","0.025392115","-0.14995655","9.742498","lay down","1"
"68661000453933","3","0.018205702","-0.14277011","9.778431","lay down","1"
"68661020366224","3","0.003832817","-0.13318819","9.77364","lay down","1"
"68661040273933","3","-0.0081445575","-0.12600175","9.7880125","lay down","1"
"68661060185443","3","-9.5808506E-4","-0.11402434","9.771244","lay down","1"
"68661080093151","3","0.0062283278","-0.099651486","9.771244","lay down","1"
"68661099996589","3","0.008623779","-0.10683793","9.768848","lay down","1"
"68661119904297","3","0.008623779","-0.11402434","9.756871","lay down","1"
"68661139820287","3","0.0062283278","-0.11402434","9.7353115","lay down","1"
"68661159727995","3","0.003832817","-0.12121078","9.749685","lay down","1"
"68661179640808","3","0.003832817","-0.11881533","9.754476","lay down","1"
"68661199548464","3","0.008623779","-0.11162889","9.759267","lay down","1"
"68661219447110","3","0.003832817","-0.12839723","9.764058","lay down","1"
"68661239354818","3","0.003832817","-0.13318819","9.742498","lay down","1"
"68661259277995","3","0.013414741","-0.10923341","9.761662","lay down","1"
"68661279185651","3","0.003832817","-0.123606294","9.778431","lay down","1"
"68661299097735","3","0.0110192895","-0.11641985","9.749685","lay down","1"
"68661319002578","3","0.003832817","-0.123606294","9.77364","lay down","1"
"68661338897995","3","0.003832817","-0.13558367","9.768848","lay down","1"
"68661358821745","3","0.013414741","-0.13318819","9.768848","lay down","1"
"68661378729558","3","-9.5808506E-4","-0.123606294","9.764058","lay down","1"
"68661398627683","3","0.015810192","-0.11881533","9.754476","lay down","1"
"68661418535547","3","0.003832817","-0.11881533","9.756871","lay down","1"
"68661438446276","3","0.0110192895","-0.11641985","9.737708","sit up","1"
"68661458354089","3","0.0110192895","-0.123606294","9.74729","sit up","1"
"68661478266693","3","0.0110192895","-0.10444245","9.759267","sit up","1"
"68661498174505","3","0.0014373064","-0.11881533","9.766453","sit up","1"
"68661518089401","3","0.0062283278","-0.12121078","9.785617","sit up","1"
"68661537997214","3","0.0062283278","-0.11162889","9.754476","sit up","1"
"68661557908828","3","-0.0033535957","-0.11881533","9.764058","sit up","1"
"68661577816641","3","-0.0057491064","-0.123606294","9.77364","sit up","1"
"68661597739870","3","0.015810192","-0.10683793","9.766453","sit up","1"
"68661617647735","3","0.0062283278","-0.12839723","9.754476","sit up","1"
"68661637542318","3","0.0014373064","-0.14277011","9.771244","sit up","1"
"68661657450235","3","0.0062283278","-0.13558367","9.749685","sit up","1"
"68661677365391","3","0.013414741","-0.11881533","9.756871","sit up","1"
"68661697273255","3","-0.0057491064","-0.12121078","9.790408","sit up","1"
"68661717178308","3","0.0014373064","-0.12600175","9.780826","sit up","1"
"68661737086172","3","0.003832817","-0.11162889","9.744894","sit up","1"
"68661756994037","3","0.008623779","-0.11402434","9.759267","sit up","1"
"68661776901901","3","-0.017726481","-0.13318819","9.771244","sit up","1"
"68661796808099","3","0.0062283278","-0.11641985","9.75208","sit up","1"
"68661816715964","3","0.015810192","-0.12600175","9.766453","sit up","1"
"68661836627266","3","0.020601213","-0.12839723","9.759267","sit up","1"
"68661856535130","3","0.013414741","-0.12839723","9.780826","sit up","1"
"68661876442526","3","0.003832817","-0.12600175","9.764058","sit up","1"
"68661896350391","3","0.015810192","-0.11881533","9.75208","sit up","1"
"68661916270599","3","-0.0081445575","-0.11641985","9.776035","sit up","1"
"68661936178464","3","0.0110192895","-0.11881533","9.771244","sit up","1"
"68661956080912","3","0.0110192895","-0.11402434","9.77364","sit up","1"
"68661975988776","3","0.008623779","-0.12121078","9.771244","sit up","1"
"68661995895964","3","-0.01293546","-0.12121078","9.761662","sit up","1"
"68662015803776","3","0.0014373064","-0.12839723","9.74729","sit up","1"
