"Timestamp","Accuracy","Acceleration X","Acceleration Y","Acceleration Z","Label","Cycle"
"1133087788744774","3","-0.29688102","-0.2777274","9.892841","none","0"
"1133087808735399","3","-0.31603462","-0.24899697","9.931149","none","0"
"1133087828726024","3","-0.30645782","-0.24899697","9.902418","none","0"
"1133087848749461","3","-0.2873042","-0.25857377","9.959879","none","0"
"1133087868740086","3","-0.2681506","-0.23942018","9.931149","none","0"
"1133087888730711","3","-0.31603462","-0.23942018","9.931149","none","0"
"1133087908752586","3","-0.2873042","-0.25857377","9.940725","none","0"
"1133087928744774","3","-0.2873042","-0.23942018","9.959879","none","0"
"1133087948735399","3","-0.2873042","-0.24899697","9.902418","none","0"
"1133087968726024","3","-0.29688102","-0.24899697","9.959879","none","0"
"1133087988747899","3","-0.2777274","-0.2681506","9.950302","none","0"
"1133088008738524","3","-0.2681506","-0.25857377","9.931149","none","0"
"1133088028729149","3","-0.30645782","-0.25857377","9.950302","none","0"
"1133088048751024","3","-0.31603462","-0.24899697","9.950302","none","0"
"1133088068743211","3","-0.25857377","-0.2681506","9.940725","none","0"
"1133088088733836","3","-0.30645782","-0.23942018","9.921572","none","0"
"1133088108724461","3","-0.30645782","-0.24899697","9.959879","none","0"
"1133088128746336","3","-0.23942018","-0.23942018","9.940725","none","0"
"1133088148738524","3","-0.25857377","-0.22984336","9.950302","none","0"
"1133088168729149","3","-0.2777274","-0.24899697","9.9790325","none","0"
"1133088188751024","3","-0.2681506","-0.23942018","9.959879","none","0"
"1133088208741649","3","-0.2681506","-0.22984336","9.911995","none","0"
"1133088228733836","3","-0.2681506","-0.23942018","9.959879","none","0"
"1133088248755711","3","-0.24899697","-0.23942018","9.940725","none","0"
"1133088268746336","3","-0.22984336","-0.25857377","9.950302","none","0"
"1133088288736961","3","-0.24899697","-0.24899697","9.931149","none","0"
"1133088308744774","3","-0.2681506","-0.23942018","9.931149","none","0"
"1133088328751024","3","-0.23942018","-0.23942018","9.921572","none","0"
"1133088348741649","3","-0.22026655","-0.22026655","9.959879","none","0"
"1133088368732274","3","-0.20111294","-0.22984336","9.931149","none","0"
"1133088388754149","3","-0.25857377","-0.24899697","9.911995","none","0"
"1133088408744774","3","-0.24899697","-0.22984336","9.931149","none","0"
"1133088428735399","3","-0.23942018","-0.22984336","9.940725","none","0"
"1133088448727586","3","-0.20111294","-0.23942018","9.950302","none","0"
"1133088468749461","3","-0.22984336","-0.22026655","9.931149","none","0"
"1133088488740086","3","-0.22984336","-0.23942018","9.931149","none","0"
"1133088508730711","3","-0.22984336","-0.22984336","9.9790325","none","0"
"1133088528752586","3","-0.20111294","-0.22984336","9.950302","none","0"
"1133088548744774","3","-0.22026655","-0.21068975","9.911995","none","0"
"1133088568735399","3","-0.22984336","-0.24899697","9.9790325","none","0"
"1133088588726024","3","-0.22026655","-0.22984336","9.931149","none","0"
"1133088608747899","3","-0.21068975","-0.23942018","9.950302","none","0"
"1133088628738524","3","-0.22026655","-0.22984336","9.950302","none","0"
"1133088648730711","3","-0.22984336","-0.22984336","9.959879","none","0"
"1133088668752586","3","-0.21068975","-0.23942018","9.959879","none","0"
"1133088688743211","3","-0.22026655","-0.22026655","9.931149","none","0"
"1133088708733836","3","-0.22984336","-0.24899697","9.998186","none","0"
"1133088728724461","3","-0.22026655","-0.22984336","9.911995","none","0"
"1133088748747899","3","-0.22026655","-0.24899697","9.969456","none","0"
"1133088768738524","3","-0.22026655","-0.22984336","9.931149","none","0"
"1133088788729149","3","-0.22026655","-0.24899697","9.959879","none","0"
"1133088808751024","3","-0.21068975","-0.21068975","9.931149","none","0"
"1133088828741649","3","-0.22026655","-0.24899697","9.959879","none","0"
"1133088848732274","3","-0.20111294","-0.22984336","9.931149","none","0"
"1133088868755711","3","-0.22984336","-0.23942018","9.940725","none","0"
"1133088888746336","3","-0.22026655","-0.23942018","9.931149","none","0"
"1133088908736961","3","-0.21068975","-0.22984336","9.950302","none","0"
"1133088928727586","3","-0.22026655","-0.24899697","9.940725","none","0"
"1133088948749461","3","-0.21068975","-0.22984336","9.950302","none","0"
"1133088968741649","3","-0.22984336","-0.23942018","9.950302","none","0"
"1133088988732274","3","-0.22984336","-0.23942018","9.940725","none","0"
"1133089008771336","3","-0.22026655","-0.22984336","9.940725","none","0"
"1133089028744774","3","-0.22984336","-0.22984336","9.931149","none","0"
"1133089048735399","3","-0.21068975","-0.23942018","9.931149","none","0"
"1133089068727586","3","-0.22026655","-0.22984336","9.931149","none","0"
"1133089088749461","3","-0.22984336","-0.24899697","9.940725","none","0"
"1133089108740086","3","-0.22026655","-0.22984336","9.959879","none","0"
"1133089128730711","3","-0.21068975","-0.22026655","9.921572","none","0"
"1133089148752586","3","-0.22984336","-0.22984336","9.959879","none","0"
"1133089168744774","3","-0.22984336","-0.22984336","9.940725","none","0"
"1133089188735399","3","-0.22026655","-0.23942018","9.940725","none","0"
"1133089208726024","3","-0.19153613","-0.23942018","9.959879","none","0"
"1133089228747899","3","-0.22026655","-0.22984336","9.959879","none","0"
"1133089248738524","3","-0.22026655","-0.23942018","9.940725","none","0"
"1133089268730711","3","-0.23942018","-0.24899697","9.969456","none","0"
"1133089288752586","3","-0.22026655","-0.23942018","9.950302","none","0"
"1133089308743211","3","-0.20111294","-0.23942018","9.950302","none","0"
"1133089328733836","3","-0.22026655","-0.22984336","9.959879","none","0"
"1133089348726024","3","-0.23942018","-0.22984336","9.911995","none","0"
"1133089368747899","3","-0.20111294","-0.21068975","9.950302","none","0"
"1133089388738524","3","-0.24899697","-0.22984336","9.959879","none","0"
"1133089408729149","3","-0.22026655","-0.23942018","9.950302","none","0"
"1133089428751024","3","-0.21068975","-0.25857377","9.921572","none","0"
"1133089448743211","3","-0.22026655","-0.22026655","9.969456","none","0"
"1133089468733836","3","-0.20111294","-0.22984336","9.940725","none","0"
"1133089488724461","3","-0.22984336","-0.22984336","9.959879","none","0"
"1133089508746336","3","-0.22026655","-0.24899697","9.950302","none","0"
"1133089528736961","3","-0.19153613","-0.22984336","9.911995","none","0"
"1133089548729149","3","-0.22984336","-0.24899697","9.969456","none","0"
"1133089568751024","3","-0.22984336","-0.22984336","9.931149","none","0"
"1133089588741649","3","-0.21068975","-0.23942018","9.950302","none","0"
"1133089608732274","3","-0.22026655","-0.25857377","9.940725","none","0"
"1133089628754149","3","-0.19153613","-0.20111294","9.911995","none","0"
"1133089648744774","3","-0.23942018","-0.22026655","9.969456","none","0"
"1133089668735399","3","-0.22984336","-0.23942018","9.950302","none","0"
"1133089688727586","3","-0.23942018","-0.23942018","9.950302","none","0"
"1133089708766649","3","-0.22984336","-0.22026655","9.940725","none","0"
"1133089728740086","3","-0.20111294","-0.22984336","9.931149","none","0"
"1133089748730711","3","-0.21068975","-0.23942018","9.921572","none","0"
"1133089768754149","3","-0.22984336","-0.24899697","9.940725","none","0"
"1133089788744774","3","-0.21068975","-0.23942018","9.950302","none","0"
"1133089808735399","3","-0.22026655","-0.23942018","9.940725","none","0"
"1133089828726024","3","-0.21068975","-0.22984336","9.969456","none","0"
"1133089848749461","3","-0.22026655","-0.24899697","9.940725","none","0"
"1133089868740086","3","-0.21068975","-0.21068975","9.959879","none","0"
"1133089888730711","3","-0.22984336","-0.21068975","9.931149","none","0"
"1133089908752586","3","-0.21068975","-0.23942018","9.950302","none","0"
"1133089928743211","3","-0.22026655","-0.22984336","9.950302","none","0"
"1133089948733836","3","-0.21068975","-0.23942018","9.940725","none","0"
"1133089968726024","3","-0.22026655","-0.23942018","9.959879","none","0"
"1133089988747899","3","-0.21068975","-0.22984336","9.940725","none","0"
"1133090008738524","3","-0.21068975","-0.25857377","9.911995","none","0"
"1133090028729149","3","-0.22026655","-0.23942018","9.950302","none","0"
"1133090048752586","3","-0.22026655","-0.22026655","9.911995","none","0"
"1133090068743211","3","-0.21068975","-0.22984336","9.950302","none","0"
"1133090088733836","3","-0.23942018","-0.22984336","9.921572","none","0"
"1133090108724461","3","-0.21068975","-0.23942018","9.959879","none","0"
"1133090128746336","3","-0.21068975","-0.23942018","9.950302","none","0"
"1133090148736961","3","-0.22026655","-0.23942018","9.931149","none","0"
"1133090168729149","3","-0.22026655","-0.22984336","9.950302","none","0"
"1133090188751024","3","-0.22026655","-0.23942018","9.931149","none","0"
"1133090208741649","3","-0.20111294","-0.23942018","9.940725","none","0"
"1133090228732274","3","-0.20111294","-0.22984336","9.931149","none","0"
"1133090248754149","3","-0.22026655","-0.24899697","9.969456","none","0"
"1133090268746336","3","-0.19153613","-0.22026655","9.931149","none","0"
"1133090288736961","3","-0.22984336","-0.22026655","9.940725","none","0"
"1133090308727586","3","-0.21068975","-0.22984336","9.902418","none","0"
"1133090328749461","3","-0.21068975","-0.22026655","9.950302","none","0"
"1133090348741649","3","-0.23942018","-0.22984336","9.959879","none","0"
"1133090368732274","3","-0.20111294","-0.22984336","9.921572","none","0"
"1133090388754149","3","-0.21068975","-0.23942018","9.959879","none","0"
"1133090408760399","3","-0.23942018","-0.23942018","9.940725","none","0"
"1133090428735399","3","-0.20111294","-0.21068975","9.921572","none","0"
"1133090448727586","3","-0.20111294","-0.23942018","9.911995","none","0"
"1133090468749461","3","-0.22984336","-0.22984336","9.9790325","none","0"
"1133090488740086","3","-0.21068975","-0.23942018","9.902418","none","0"
"1133090508730711","3","-0.22984336","-0.22984336","9.9790325","none","0"
"1133090528752586","3","-0.23942018","-0.23942018","9.959879","none","0"
"1133090548743211","3","-0.21068975","-0.22984336","9.921572","none","0"
"1133090568733836","3","-0.22026655","-0.22026655","9.950302","none","0"
"1133090588726024","3","-0.22984336","-0.24899697","9.950302","none","0"
"1133090608747899","3","-0.19153613","-0.23942018","9.931149","none","0"
"1133090628738524","3","-0.21068975","-0.22984336","9.931149","none","0"
"1133090648729149","3","-0.23942018","-0.23942018","9.969456","none","0"
"1133090668752586","3","-0.18195933","-0.24899697","9.911995","none","0"
"1133090688743211","3","-0.21068975","-0.22984336","9.959879","none","0"
"1133090708733836","3","-0.22984336","-0.22984336","9.931149","none","0"
"1133090728724461","3","-0.22026655","-0.22026655","9.940725","none","0"
"1133090748746336","3","-0.22984336","-0.24899697","9.959879","none","0"
"1133090768736961","3","-0.20111294","-0.22984336","9.940725","none","0"
"1133090788729149","3","-0.22026655","-0.22984336","9.950302","none","0"
"1133090808751024","3","-0.22026655","-0.22984336","9.940725","none","0"
"1133090828741649","3","-0.22984336","-0.22984336","9.940725","none","0"
"1133090848733836","3","-0.21068975","-0.23942018","9.940725","none","0"
"1133090868754149","3","-0.22026655","-0.22984336","9.940725","none","0"
"1133090888746336","3","-0.20111294","-0.22026655","9.902418","none","0"
"1133090908736961","3","-0.22026655","-0.22026655","9.940725","none","0"
"1133090928727586","3","-0.21068975","-0.22984336","9.921572","none","0"
"1133090948749461","3","-0.20111294","-0.24899697","9.950302","none","0"
"1133090968741649","3","-0.21068975","-0.23942018","9.940725","none","0"
"1133090988732274","3","-0.20111294","-0.22026655","9.911995","none","0"
"1133091008754149","3","-0.21068975","-0.22984336","9.969456","none","0"
"1133091028744774","3","-0.22026655","-0.22984336","9.921572","none","0"
"1133091048735399","3","-0.22984336","-0.22984336","9.959879","none","0"
"1133091068727586","3","-0.22026655","-0.23942018","9.940725","none","0"
"1133091088749461","3","-0.21068975","-0.22984336","9.940725","none","0"
"1133091108755711","3","-0.20111294","-0.22026655","9.931149","none","0"
"1133091128730711","3","-0.21068975","-0.22984336","9.931149","none","0"
"1133091148752586","3","-0.22984336","-0.24899697","9.921572","none","0"
"1133091168744774","3","-0.22026655","-0.22026655","9.940725","none","0"
"1133091188733836","3","-0.21068975","-0.23942018","9.931149","none","0"
"1133091208726024","3","-0.21068975","-0.22984336","9.959879","none","0"
"1133091228747899","3","-0.22984336","-0.22026655","9.902418","none","0"
"1133091248738524","3","-0.20111294","-0.22026655","9.940725","none","0"
"1133091268730711","3","-0.22984336","-0.24899697","9.921572","none","0"
"1133091288752586","3","-0.21068975","-0.22026655","9.940725","none","0"
"1133091308743211","3","-0.21068975","-0.23942018","9.911995","none","0"
"1133091328733836","3","-0.21068975","-0.23942018","9.940725","none","0"
"1133091348724461","3","-0.20111294","-0.23942018","9.940725","none","0"
"1133091368747899","3","-0.22026655","-0.23942018","9.940725","none","0"
"1133091388738524","3","-0.22026655","-0.23942018","9.931149","none","0"
"1133091408729149","3","-0.21068975","-0.22026655","9.921572","none","0"
"1133091428751024","3","-0.21068975","-0.22984336","9.940725","none","0"
"1133091448741649","3","-0.22984336","-0.22984336","9.940725","none","0"
"1133091468732274","3","-0.22984336","-0.24899697","9.940725","none","0"
"1133091488755711","3","-0.21068975","-0.25857377","9.931149","none","0"
"1133091508746336","3","-0.20111294","-0.23942018","9.931149","none","0"
"1133091528736961","3","-0.22026655","-0.23942018","9.921572","none","0"
"1133091548727586","3","-0.21068975","-0.24899697","9.931149","none","0"
"1133091568751024","3","-0.22026655","-0.21068975","9.969456","none","0"
"1133091588741649","3","-0.22984336","-0.22026655","9.911995","none","0"
"1133091608732274","3","-0.20111294","-0.22984336","9.940725","none","0"
"1133091628754149","3","-0.21068975","-0.23942018","9.931149","none","0"
"1133091648744774","3","-0.22026655","-0.22984336","9.940725","none","0"
"1133091668736961","3","-0.21068975","-0.22984336","9.921572","none","0"
"1133091688727586","3","-0.22026655","-0.22984336","9.931149","none","0"
"1133091708749461","3","-0.22984336","-0.23942018","9.931149","none","0"
"1133091728740086","3","-0.21068975","-0.22026655","9.931149","none","0"
"1133091748730711","3","-0.22026655","-0.24899697","9.950302","sit down","0"
"1133091768754149","3","-0.20111294","-0.22984336","9.892841","sit down","0"
"1133091788744774","3","-0.23942018","-0.23942018","9.959879","sit down","0"
"1133091808751024","3","-0.21068975","-0.23942018","9.931149","sit down","0"
"1133091828726024","3","-0.20111294","-0.22026655","9.911995","sit down","0"
"1133091848747899","3","-0.22984336","-0.22026655","9.940725","sit down","0"
"1133091868738524","3","-0.2873042","-0.23942018","10.01734","sit down","0"
"1133091888730711","3","-0.17238252","-0.22026655","9.892841","sit down","0"
"1133091908752586","3","-0.17238252","-0.22026655","9.873688","sit down","0"
"1133091928743211","3","-0.25857377","-0.25857377","9.969456","sit down","0"
"1133091948733836","3","-0.17238252","-0.22026655","9.835381","sit down","0"
"1133091968726024","3","-0.22026655","-0.19153613","9.864111","sit down","0"
"1133091988747899","3","-0.22026655","-0.22984336","9.921572","sit down","0"
"1133092008738524","3","-0.16280572","-0.25857377","10.007763","sit down","0"
"1133092028729149","3","-0.22984336","-0.22984336","10.01734","sit down","0"
"1133092048751024","3","-0.22984336","-0.24899697","9.911995","sit down","0"
"1133092068743211","3","-0.19153613","-0.22984336","9.902418","sit down","0"
"1133092088733836","3","-0.22984336","-0.21068975","9.931149","sit down","0"
"1133092108724461","3","-0.21068975","-0.24899697","9.921572","sit down","0"
"1133092128746336","3","-0.20111294","-0.21068975","9.911995","sit down","0"
"1133092148736961","3","-0.22984336","-0.23942018","9.940725","sit down","0"
"1133092168727586","3","-0.21068975","-0.22984336","9.921572","sit down","0"
"1133092188751024","3","-0.22026655","-0.22984336","9.911995","sit down","0"
"1133092208741649","3","-0.20111294","-0.22984336","9.911995","sit down","0"
"1133092228732274","3","-0.20111294","-0.21068975","9.911995","sit down","0"
"1133092248754149","3","-0.20111294","-0.22984336","9.931149","sit down","0"
"1133092268746336","3","-0.20111294","-0.23942018","9.931149","sit down","0"
"1133092288736961","3","-0.21068975","-0.23942018","9.921572","sit down","0"
"1133092308727586","3","-0.22026655","-0.24899697","9.940725","sit down","0"
"1133092328749461","3","-0.21068975","-0.24899697","9.931149","sit down","0"
"1133092348740086","3","-0.23942018","-0.23942018","9.921572","sit down","0"
"1133092368730711","3","-0.20111294","-0.24899697","9.940725","sit down","0"
"1133092388754149","3","-0.22026655","-0.22984336","9.931149","sit down","0"
"1133092408744774","3","-0.22026655","-0.22026655","9.911995","sit down","0"
"1133092428735399","3","-0.18195933","-0.22984336","9.911995","sit down","0"
"1133092448726024","3","-0.22026655","-0.22984336","9.9790325","sit down","0"
"1133092468747899","3","-0.20111294","-0.22026655","9.902418","sit down","0"
"1133092488740086","3","-0.23942018","-0.23942018","9.969456","sit down","0"
"1133092508746336","3","-0.19153613","-0.22026655","9.873688","sit down","0"
"1133092528752586","3","-0.22984336","-0.24899697","9.940725","sit down","0"
"1133092548743211","3","-0.23942018","-0.23942018","9.844957","sit down","0"
"1133092568733836","3","-0.22984336","-0.22984336","9.969456","sit down","0"
"1133092588726024","3","-0.24899697","-0.22984336","9.988609","sit down","0"
"1133092608747899","3","-0.10534488","-0.24899697","9.825804","sit down","0"
"1133092628738524","3","-0.24899697","-0.19153613","10.04607","sit down","0"
"1133092648729149","3","-0.23942018","-0.2681506","9.902418","sit down","0"
"1133092668751024","3","-0.15322891","-0.22026655","9.921572","sit down","0"
"1133092688743211","3","-0.2873042","-0.22984336","9.940725","sit down","0"
"1133092708733836","3","-0.25857377","-0.24899697","9.931149","sit down","0"
"1133092728724461","3","-0.22026655","-0.23942018","9.911995","sit down","0"
"1133092748746336","3","-0.30645782","-0.24899697","9.902418","sit down","0"
"1133092768736961","3","-0.21068975","-0.22984336","9.883265","sit down","0"
"1133092788727586","3","-0.24899697","-0.22026655","9.921572","sit down","0"
"1133092808751024","3","-0.37349546","-0.23942018","9.921572","sit down","0"
"1133092828741649","3","-0.20111294","-0.23942018","9.921572","sit down","0"
"1133092848732274","3","-0.22026655","-0.25857377","9.921572","sit down","0"
"1133092868754149","3","-0.019153614","-0.22984336","10.065224","sit down","0"
"1133092888746336","3","-0.11492168","-0.22984336","10.0748005","sit down","0"
"1133092908736961","3","-0.10534488","-0.21068975","9.998186","sit down","0"
"1133092928727586","3","-0.12449849","-0.20111294","10.093954","sit down","0"
"1133092948749461","3","0.019153614","-0.21068975","10.505757","sit down","0"
"1133092968740086","3","0.05746084","-0.22984336","10.036493","sit down","0"
"1133092988730711","3","0.2873042","-0.37349546","9.375694","sit down","0"
"1133093008754149","3","0.10534488","-0.2777274","9.481039","sit down","0"
"1133093028744774","3","-0.21068975","-0.12449849","10.055647","sit down","0"
"1133093048735399","3","-0.095768064","-0.11492168","10.151415","sit down","0"
"1133093068726024","3","-0.15322891","-0.2873042","9.864111","sit down","0"
"1133093088749461","3","-0.35434186","-0.25857377","9.576807","sit down","0"
"1133093108740086","3","-0.45968673","-0.18195933","9.595961","sit down","0"
"1133093128730711","3","-0.4213795","-0.22026655","9.911995","sit down","0"
"1133093148754149","3","-0.30645782","-0.22026655","9.959879","sit down","0"
"1133093168744774","3","-0.2681506","-0.24899697","9.825804","sit down","0"
"1133093188735399","3","-0.2873042","-0.21068975","9.816227","sit down","0"
"1133093208743211","3","-0.20111294","-0.17238252","9.883265","sit down","0"
"1133093228747899","3","-0.047884032","-0.20111294","9.959879","sit down","0"
"1133093248738524","3","-0.019153614","-0.19153613","10.007763","sit down","0"
"1133093268730711","3","-0.009576807","-0.19153613","10.0269165","sit down","0"
"1133093288752586","3","0.0","-0.19153613","10.04607","sit down","0"
"1133093308743211","3","0.0","-0.18195933","10.0748005","sit down","0"
"1133093328733836","3","0.009576807","-0.19153613","10.0269165","sit down","0"
"1133093348726024","3","0.009576807","-0.20111294","10.007763","sit down","0"
"1133093368746336","3","-0.047884032","-0.21068975","9.988609","sit down","0"
"1133093388738524","3","-0.047884032","-0.17238252","10.007763","sit down","0"
"1133093408729149","3","-0.05746084","-0.19153613","10.007763","sit down","0"
"1133093428752586","3","-0.019153614","-0.19153613","9.959879","sit down","0"
"1133093448741649","3","0.0","-0.20111294","10.01734","sit down","0"
"1133093468733836","3","-0.009576807","-0.18195933","9.998186","sit down","0"
"1133093488755711","3","0.0","-0.16280572","9.950302","sit down","0"
"1133093508746336","3","0.0","-0.20111294","9.950302","sit down","0"
"1133093528736961","3","-0.019153614","-0.19153613","9.931149","sit down","0"
"1133093548729149","3","-0.076614454","-0.19153613","9.911995","sit down","0"
"1133093568751024","3","-0.095768064","-0.20111294","9.892841","sit down","0"
"1133093588741649","3","-0.1340753","-0.19153613","9.854534","sit down","0"
"1133093608732274","3","-0.22026655","-0.19153613","9.816227","sit down","0"
"1133093628754149","3","-0.2873042","-0.20111294","9.825804","sit down","0"
"1133093648746336","3","-0.16280572","-0.19153613","9.864111","sit down","0"
"1133093668736961","3","-0.1436521","-0.18195933","9.940725","sit down","0"
"1133093688726024","3","-0.10534488","-0.20111294","9.835381","sit down","0"
"1133093708749461","3","-0.076614454","-0.19153613","9.854534","sit down","0"
"1133093728740086","3","-0.038307227","-0.20111294","9.950302","sit down","0"
"1133093748732274","3","-0.019153614","-0.17238252","9.9790325","sit down","0"
"1133093768754149","3","0.019153614","-0.19153613","9.988609","sit down","0"
"1133093788744774","3","0.0","-0.18195933","9.988609","sit down","0"
"1133093808735399","3","0.0","-0.17238252","10.007763","sit down","0"
"1133093828726024","3","0.019153614","-0.18195933","9.969456","sit down","0"
"1133093848749461","3","0.019153614","-0.21068975","9.988609","sit down","0"
"1133093868740086","3","0.0","-0.19153613","9.940725","sit down","0"
"1133093888730711","3","0.0","-0.20111294","9.931149","sit down","0"
"1133093908769774","3","-0.019153614","-0.19153613","9.959879","sit down","0"
"1133093928743211","3","0.0","-0.19153613","9.940725","sit down","0"
"1133093948733836","3","-0.02873042","-0.18195933","9.959879","sit down","0"
"1133093968726024","3","-0.02873042","-0.19153613","9.969456","sit down","0"
"1133093988747899","3","-0.038307227","-0.17238252","9.969456","sit down","0"
"1133094008738524","3","-0.06703765","-0.16280572","9.931149","sit down","0"
"1133094028729149","3","-0.06703765","-0.16280572","9.911995","sit down","0"
"1133094048751024","3","-0.095768064","-0.18195933","9.921572","sit down","0"
"1133094068743211","3","-0.08619126","-0.17238252","9.892841","sit down","0"
"1133094088733836","3","-0.08619126","-0.17238252","9.911995","sit down","0"
"1133094108755711","3","-0.06703765","-0.18195933","9.911995","sit down","0"
"1133094128746336","3","-0.06703765","-0.18195933","9.911995","sit down","0"
"1133094148736961","3","-0.047884032","-0.19153613","9.921572","sit down","0"
"1133094168729149","3","-0.05746084","-0.18195933","9.931149","sit down","0"
"1133094188751024","3","-0.047884032","-0.18195933","9.911995","sit down","0"
"1133094208743211","3","-0.038307227","-0.18195933","9.940725","sit down","0"
"1133094228732274","3","-0.019153614","-0.17238252","9.940725","sit down","0"
"1133094248754149","3","-0.02873042","-0.16280572","9.940725","sit down","0"
"1133094268746336","3","-0.038307227","-0.16280572","9.959879","sit down","0"
"1133094288736961","3","0.0","-0.18195933","9.959879","sit down","0"
"1133094308727586","3","-0.019153614","-0.18195933","9.959879","sit down","0"
"1133094328749461","3","-0.019153614","-0.18195933","9.940725","sit down","0"
"1133094348740086","3","-0.009576807","-0.19153613","9.931149","sit down","0"
"1133094368732274","3","-0.02873042","-0.20111294","9.940725","sit down","0"
"1133094388754149","3","-0.019153614","-0.17238252","9.940725","sit down","0"
"1133094408744774","3","-0.019153614","-0.19153613","9.921572","sit down","0"
"1133094428735399","3","-0.038307227","-0.16280572","9.931149","sit down","0"
"1133094448727586","3","-0.05746084","-0.18195933","9.931149","sit down","0"
"1133094468749461","3","-0.05746084","-0.16280572","9.921572","sit down","0"
"1133094488740086","3","-0.06703765","-0.17238252","9.940725","sit down","0"
"1133094508730711","3","-0.076614454","-0.20111294","9.940725","sit down","0"
"1133094528752586","3","-0.076614454","-0.17238252","9.940725","sit down","0"
"1133094548743211","3","-0.06703765","-0.18195933","9.940725","sit down","0"
"1133094568735399","3","-0.038307227","-0.18195933","9.940725","sit down","0"
"1133094588726024","3","-0.038307227","-0.19153613","9.940725","sit down","0"
"1133094608765086","3","-0.047884032","-0.18195933","9.911995","sit down","0"
"1133094628738524","3","-0.02873042","-0.19153613","9.931149","sit down","0"
"1133094648729149","3","-0.038307227","-0.18195933","9.940725","sit down","0"
"1133094668752586","3","-0.019153614","-0.18195933","9.931149","sit down","0"
"1133094688743211","3","-0.02873042","-0.17238252","9.940725","sit down","0"
"1133094708733836","3","-0.019153614","-0.18195933","9.911995","sit down","0"
"1133094728755711","3","-0.019153614","-0.19153613","9.940725","sit down","0"
"1133094748747899","3","-0.009576807","-0.19153613","9.931149","sit down","0"
"1133094768736961","3","-0.038307227","-0.19153613","9.950302","sit down","0"
"1133094788729149","3","-0.047884032","-0.17238252","9.940725","sit down","0"
"1133094808751024","3","-0.047884032","-0.20111294","9.921572","sit down","0"
"1133094828741649","3","-0.047884032","-0.16280572","9.931149","sit down","0"
"1133094848732274","3","-0.038307227","-0.18195933","9.921572","sit down","0"
"1133094868754149","3","-0.05746084","-0.18195933","9.959879","sit down","0"
"1133094888746336","3","-0.047884032","-0.19153613","9.950302","sit down","0"
"1133094908736961","3","-0.047884032","-0.17238252","9.940725","sit down","0"
"1133094928727586","3","-0.02873042","-0.18195933","9.921572","sit down","0"
"1133094948749461","3","-0.06703765","-0.16280572","9.921572","sit down","0"
"1133094968740086","3","-0.047884032","-0.17238252","9.940725","sit down","0"
"1133094988732274","3","-0.019153614","-0.15322891","9.931149","sit down","0"
"1133095008754149","3","-0.02873042","-0.20111294","9.940725","sit down","0"
"1133095028744774","3","-0.009576807","-0.17238252","9.940725","sit down","0"
"1133095048735399","3","-0.038307227","-0.19153613","9.940725","sit down","0"
"1133095068727586","3","-0.019153614","-0.17238252","9.902418","sit down","0"
"1133095088749461","3","-0.047884032","-0.17238252","9.940725","sit down","0"
"1133095108740086","3","-0.019153614","-0.16280572","9.931149","sit down","0"
"1133095128730711","3","-0.02873042","-0.18195933","9.940725","sit down","0"
"1133095148752586","3","-0.047884032","-0.17238252","9.950302","sit down","0"
"1133095168744774","3","-0.02873042","-0.20111294","9.931149","sit down","0"
"1133095188735399","3","-0.02873042","-0.18195933","9.921572","sit down","0"
"1133095208726024","3","-0.02873042","-0.20111294","9.931149","sit down","0"
"1133095228747899","3","-0.047884032","-0.20111294","9.931149","sit down","0"
"1133095248738524","3","-0.02873042","-0.18195933","9.921572","sit down","0"
"1133095268730711","3","-0.047884032","-0.18195933","9.931149","sit down","0"
"1133095288751024","3","-0.047884032","-0.18195933","9.940725","sit down","0"
"1133095308758836","3","-0.038307227","-0.18195933","9.931149","sit down","0"
"1133095328733836","3","-0.05746084","-0.16280572","9.921572","sit down","0"
"1133095348724461","3","-0.038307227","-0.17238252","9.931149","sit down","0"
"1133095368746336","3","-0.047884032","-0.19153613","9.940725","sit down","0"
"1133095388738524","3","-0.047884032","-0.18195933","9.950302","sit down","0"
"1133095408729149","3","-0.019153614","-0.17238252","9.931149","sit down","0"
"1133095428751024","3","-0.02873042","-0.18195933","9.921572","sit down","0"
"1133095448741649","3","-0.02873042","-0.19153613","9.921572","sit down","0"
"1133095468732274","3","-0.02873042","-0.19153613","9.931149","sit down","0"
"1133095488755711","3","-0.019153614","-0.19153613","9.931149","sit down","0"
"1133095508746336","3","-0.02873042","-0.19153613","9.921572","sit down","0"
"1133095528736961","3","-0.038307227","-0.20111294","9.931149","sit down","0"
"1133095548729149","3","-0.02873042","-0.19153613","9.931149","sit down","0"
"1133095568751024","3","-0.02873042","-0.18195933","9.921572","sit down","0"
"1133095588741649","3","-0.038307227","-0.19153613","9.921572","sit down","0"
"1133095608732274","3","-0.038307227","-0.16280572","9.911995","sit down","0"
"1133095628754149","3","-0.047884032","-0.20111294","9.931149","sit down","0"
"1133095648744774","3","-0.02873042","-0.18195933","9.931149","sit down","0"
"1133095668735399","3","-0.019153614","-0.18195933","9.911995","sit down","0"
"1133095688727586","3","-0.038307227","-0.18195933","9.931149","sit down","0"
"1133095708749461","3","-0.047884032","-0.19153613","9.931149","sit down","0"
"1133095728740086","3","-0.02873042","-0.19153613","9.950302","sit down","0"
"1133095748730711","3","-0.047884032","-0.18195933","9.940725","lay down","0"
"1133095768754149","3","-0.019153614","-0.19153613","9.921572","lay down","0"
"1133095788744774","3","-0.02873042","-0.19153613","9.931149","lay down","0"
"1133095808735399","3","-0.019153614","-0.18195933","9.921572","lay down","0"
"1133095828726024","3","-0.05746084","-0.19153613","9.931149","lay down","0"
"1133095848747899","3","-0.038307227","-0.18195933","9.921572","lay down","0"
"1133095868738524","3","-0.019153614","-0.17238252","9.931149","lay down","0"
"1133095888730711","3","-0.038307227","-0.22984336","9.921572","lay down","0"
"1133095908752586","3","-0.02873042","-0.19153613","9.854534","lay down","0"
"1133095928743211","3","-0.038307227","-0.19153613","9.911995","lay down","0"
"1133095948733836","3","-0.019153614","-0.22026655","9.998186","lay down","0"
"1133095968724461","3","-0.02873042","-0.22984336","10.055647","lay down","0"
"1133095988747899","3","-0.038307227","-0.22026655","9.998186","lay down","0"
"1133096008754149","3","-0.047884032","-0.22026655","9.883265","lay down","0"
"1133096028729149","3","-0.02873042","-0.18195933","9.883265","lay down","0"
"1133096048751024","3","-0.019153614","-0.20111294","9.892841","lay down","0"
"1133096068743211","3","-0.02873042","-0.19153613","9.931149","lay down","0"
"1133096088733836","3","-0.038307227","-0.21068975","9.950302","lay down","0"
"1133096108755711","3","-0.047884032","-0.17238252","9.911995","lay down","0"
"1133096128746336","3","-0.038307227","-0.16280572","9.902418","lay down","0"
"1133096148736961","3","-0.038307227","-0.19153613","9.940725","lay down","0"
"1133096168729149","3","-0.02873042","-0.20111294","9.902418","lay down","0"
"1133096188751024","3","-0.02873042","-0.19153613","9.921572","lay down","0"
"1133096208741649","3","-0.038307227","-0.18195933","9.931149","lay down","0"
"1133096228732274","3","-0.038307227","-0.20111294","9.911995","lay down","0"
"1133096248754149","3","-0.02873042","-0.18195933","9.902418","lay down","0"
"1133096268744774","3","-0.038307227","-0.19153613","9.921572","lay down","0"
"1133096288736961","3","-0.02873042","-0.18195933","9.911995","lay down","0"
"1133096308727586","3","-0.019153614","-0.20111294","9.940725","lay down","0"
"1133096328749461","3","-0.047884032","-0.20111294","9.911995","lay down","0"
"1133096348740086","3","-0.05746084","-0.19153613","9.940725","lay down","0"
"1133096368732274","3","-0.019153614","-0.18195933","9.911995","lay down","0"
"1133096388754149","3","-0.019153614","-0.19153613","9.959879","lay down","0"
"1133096408744774","3","-0.02873042","-0.20111294","9.921572","lay down","0"
"1133096428735399","3","-0.02873042","-0.18195933","9.940725","lay down","0"
"1133096448726024","3","-0.02873042","-0.20111294","9.940725","lay down","0"
"1133096468747899","3","-0.047884032","-0.17238252","9.931149","lay down","0"
"1133096488738524","3","-0.02873042","-0.18195933","9.931149","lay down","0"
"1133096508730711","3","-0.02873042","-0.17238252","9.940725","lay down","0"
"1133096528752586","3","-0.05746084","-0.16280572","9.931149","lay down","0"
"1133096548743211","3","-0.02873042","-0.18195933","9.931149","lay down","0"
"1133096568733836","3","-0.019153614","-0.16280572","9.940725","lay down","0"
"1133096588726024","3","0.019153614","-0.19153613","9.940725","lay down","0"
"1133096608747899","3","0.009576807","-0.17238252","9.9790325","lay down","0"
"1133096628738524","3","0.038307227","-0.16280572","9.931149","lay down","0"
"1133096648729149","3","0.0","-0.16280572","9.950302","lay down","0"
"1133096668752586","3","0.095768064","-0.20111294","9.988609","lay down","0"
"1133096688743211","3","0.05746084","-0.18195933","10.01734","lay down","0"
"1133096708749461","3","0.038307227","-0.16280572","9.959879","lay down","0"
"1133096728755711","3","0.076614454","-0.11492168","9.892841","lay down","0"
"1133096748746336","3","0.10534488","-0.18195933","9.931149","lay down","0"
"1133096768736961","3","0.076614454","-0.16280572","9.940725","lay down","0"
"1133096788729149","3","0.05746084","-0.10534488","9.911995","lay down","0"
"1133096808751024","3","0.0","-0.20111294","9.854534","lay down","0"
"1133096828741649","3","0.02873042","-0.1436521","9.883265","lay down","0"
"1133096848732274","3","-0.019153614","-0.15322891","9.902418","lay down","0"
"1133096868755711","3","-0.009576807","-0.18195933","9.864111","lay down","0"
"1133096888744774","3","-0.019153614","-0.1436521","9.873688","lay down","0"
"1133096908736961","3","-0.06703765","-0.20111294","9.873688","lay down","0"
"1133096928727586","3","-0.02873042","-0.18195933","9.902418","lay down","0"
"1133096948749461","3","-0.06703765","-0.17238252","9.864111","lay down","0"
"1133096968740086","3","0.0","-0.08619126","9.864111","lay down","0"
"1133096988732274","3","-0.009576807","-0.18195933","9.854534","lay down","0"
"1133097008754149","3","0.038307227","-0.16280572","9.873688","lay down","0"
"1133097028744774","3","0.047884032","-0.15322891","9.892841","lay down","0"
"1133097048735399","3","0.019153614","-0.1436521","9.902418","lay down","0"
"1133097068726024","3","0.009576807","-0.1436521","9.911995","lay down","0"
"1133097088749461","3","0.16280572","-0.1436521","9.931149","lay down","0"
"1133097108740086","3","0.23942018","-0.19153613","10.055647","lay down","0"
"1133097128730711","3","0.19153613","-0.17238252","10.055647","lay down","0"
"1133097148752586","3","0.16280572","-0.12449849","10.007763","lay down","0"
"1133097168743211","3","0.15322891","-0.12449849","10.01734","lay down","0"
"1133097188735399","3","0.15322891","-0.06703765","10.04607","lay down","0"
"1133097208724461","3","0.22026655","-0.02873042","10.007763","lay down","0"
"1133097228747899","3","0.25857377","-0.11492168","9.883265","lay down","0"
"1133097248738524","3","0.20111294","-0.10534488","9.854534","lay down","0"
"1133097268730711","3","0.02873042","-0.1340753","9.835381","lay down","0"
"1133097288752586","3","-0.19153613","-0.22984336","9.825804","lay down","0"
"1133097308743211","3","-0.20111294","-0.20111294","9.844957","lay down","0"
"1133097328733836","3","-0.39264908","-0.24899697","9.797073","lay down","0"
"1133097348755711","3","-0.19153613","-0.22026655","9.854534","lay down","0"
"1133097368746336","3","-0.2681506","-0.22026655","9.902418","lay down","0"
"1133097388736961","3","-0.39264908","-0.1436521","9.80665","lay down","0"
"1133097408744774","3","-0.19153613","-0.2873042","9.710882","lay down","0"
"1133097428751024","3","0.0","-0.37349546","9.911995","lay down","0"
"1133097448741649","3","0.047884032","-0.076614454","9.911995","lay down","0"
"1133097468732274","3","-0.02873042","-0.41180268","9.940725","lay down","0"
"1133097488754149","3","-0.36391866","-0.05746084","9.940725","lay down","0"
"1133097508744774","3","0.2873042","-0.12449849","9.873688","lay down","0"
"1133097528735399","3","0.48841715","0.11492168","10.065224","lay down","0"
"1133097548727586","3","0.1436521","-0.39264908","10.160992","lay down","0"
"1133097568749461","3","0.0","-0.2681506","10.093954","lay down","0"
"1133097588740086","3","0.23942018","-0.05746084","9.959879","lay down","0"
"1133097608730711","3","-0.02873042","-0.18195933","9.892841","lay down","0"
"1133097628752586","3","-0.019153614","-0.02873042","9.988609","lay down","0"
"1133097648744774","3","-0.047884032","-0.12449849","9.892841","lay down","0"
"1133097668735399","3","-0.08619126","-0.1436521","9.921572","lay down","0"
"1133097688726024","3","-0.047884032","-0.17238252","9.959879","lay down","0"
"1133097708747899","3","-0.16280572","-0.18195933","9.950302","lay down","0"
"1133097728738524","3","-0.21068975","-0.17238252","9.854534","lay down","0"
"1133097748730711","3","-0.15322891","-0.17238252","9.854534","lay down","0"
"1133097768752586","3","-0.17238252","-0.22026655","9.950302","lay down","0"
"1133097788743211","3","-0.22026655","-0.24899697","9.940725","lay down","0"
"1133097808733836","3","-0.1340753","-0.12449849","9.892841","lay down","0"
"1133097828726024","3","-0.22026655","-0.1436521","9.864111","lay down","0"
"1133097848747899","3","0.0","-0.24899697","9.80665","lay down","0"
"1133097868738524","3","0.009576807","-0.12449849","9.959879","lay down","0"
"1133097888729149","3","-0.047884032","-0.21068975","9.988609","lay down","0"
"1133097908751024","3","-0.20111294","0.1340753","9.931149","lay down","0"
"1133097928743211","3","0.17238252","0.08619126","10.065224","lay down","0"
"1133097948732274","3","-0.19153613","-0.10534488","9.825804","lay down","0"
"1133097968724461","3","-0.29688102","-0.22026655","10.065224","lay down","0"
"1133097988746336","3","-0.15322891","-0.1436521","9.969456","lay down","0"
"1133098008736961","3","-0.047884032","-0.095768064","9.77792","lay down","0"
"1133098028727586","3","-0.15322891","-0.12449849","9.988609","lay down","0"
"1133098048751024","3","-0.1340753","-0.16280572","9.959879","lay down","0"
"1133098068741649","3","-0.076614454","-0.1436521","9.873688","lay down","0"
"1133098088732274","3","-0.06703765","-0.17238252","9.959879","lay down","0"
"1133098108771336","3","-0.019153614","-0.1436521","9.950302","lay down","0"
"1133098128744774","3","-0.05746084","-0.15322891","9.940725","lay down","0"
"1133098148736961","3","-0.047884032","-0.16280572","9.950302","lay down","0"
"1133098168727586","3","-0.02873042","-0.15322891","9.921572","lay down","0"
"1133098188749461","3","-0.047884032","-0.1340753","9.902418","lay down","0"
"1133098208740086","3","-0.076614454","-0.16280572","9.921572","lay down","0"
"1133098228732274","3","-0.11492168","-0.15322891","9.911995","lay down","0"
"1133098248754149","3","-0.17238252","-0.17238252","9.892841","lay down","0"
"1133098268744774","3","-0.12449849","-0.1340753","9.902418","lay down","0"
"1133098288735399","3","-0.047884032","-0.12449849","9.902418","lay down","0"
"1133098308726024","3","-0.05746084","-0.12449849","9.921572","lay down","0"
"1133098328749461","3","-0.06703765","-0.1436521","9.940725","lay down","0"
"1133098348740086","3","-0.02873042","-0.16280572","9.921572","lay down","0"
"1133098368730711","3","-0.05746084","-0.12449849","9.892841","lay down","0"
"1133098388752586","3","-0.076614454","-0.12449849","9.931149","lay down","0"
"1133098408743211","3","-0.06703765","-0.12449849","9.902418","lay down","0"
"1133098428735399","3","-0.05746084","-0.11492168","9.921572","lay down","0"
"1133098448726024","3","-0.08619126","-0.095768064","9.892841","lay down","0"
"1133098468747899","3","-0.06703765","-0.11492168","9.931149","lay down","0"
"1133098488738524","3","-0.06703765","-0.11492168","9.921572","lay down","0"
"1133098508729149","3","-0.08619126","-0.12449849","9.940725","lay down","0"
"1133098528751024","3","-0.06703765","-0.1436521","9.921572","lay down","0"
"1133098548743211","3","-0.08619126","-0.12449849","9.931149","lay down","0"
"1133098568733836","3","-0.05746084","-0.1436521","9.931149","lay down","0"
"1133098588724461","3","-0.05746084","-0.1436521","9.950302","lay down","0"
"1133098608746336","3","-0.06703765","-0.1436521","9.940725","lay down","0"
"1133098628736961","3","-0.05746084","-0.16280572","9.940725","lay down","0"
"1133098648729149","3","-0.047884032","-0.1340753","9.931149","lay down","0"
"1133098668751024","3","-0.06703765","-0.1436521","9.950302","lay down","0"
"1133098688741649","3","-0.076614454","-0.12449849","9.950302","lay down","0"
"1133098708732274","3","-0.076614454","-0.12449849","9.969456","lay down","0"
"1133098728754149","3","-0.076614454","-0.1340753","9.931149","lay down","0"
"1133098748746336","3","-0.08619126","-0.11492168","9.902418","lay down","0"
"1133098768736961","3","-0.08619126","-0.1340753","9.940725","lay down","0"
"1133098788727586","3","-0.06703765","-0.12449849","9.921572","lay down","0"
"1133098808766649","3","-0.095768064","-0.12449849","9.959879","lay down","0"
"1133098828740086","3","-0.076614454","-0.12449849","9.940725","lay down","0"
"1133098848732274","3","-0.076614454","-0.16280572","9.921572","lay down","0"
"1133098868754149","3","-0.06703765","-0.12449849","9.940725","lay down","0"
"1133098888744774","3","-0.08619126","-0.1436521","9.911995","lay down","0"
"1133098908735399","3","-0.08619126","-0.12449849","9.911995","lay down","0"
"1133098928726024","3","-0.076614454","-0.12449849","9.921572","lay down","0"
"1133098948749461","3","-0.08619126","-0.1340753","9.921572","lay down","0"
"1133098968738524","3","-0.08619126","-0.1340753","9.931149","lay down","0"
"1133098988730711","3","-0.08619126","-0.1436521","9.911995","lay down","0"
"1133099008752586","3","-0.095768064","-0.12449849","9.931149","lay down","0"
"1133099028743211","3","-0.08619126","-0.1436521","9.950302","lay down","0"
"1133099048733836","3","-0.076614454","-0.1340753","9.931149","lay down","0"
"1133099068726024","3","-0.076614454","-0.12449849","9.931149","lay down","0"
"1133099088747899","3","-0.076614454","-0.1436521","9.940725","lay down","0"
"1133099108738524","3","-0.05746084","-0.12449849","9.950302","lay down","0"
"1133099128729149","3","-0.076614454","-0.11492168","9.950302","lay down","0"
"1133099148752586","3","-0.076614454","-0.11492168","9.921572","lay down","0"
"1133099168743211","3","-0.05746084","-0.1340753","9.950302","lay down","0"
"1133099188733836","3","-0.076614454","-0.12449849","9.931149","lay down","0"
"1133099208724461","3","-0.08619126","-0.1340753","9.902418","lay down","0"
"1133099228746336","3","-0.076614454","-0.1436521","9.931149","lay down","0"
"1133099248736961","3","-0.08619126","-0.1436521","9.931149","lay down","0"
"1133099268729149","3","-0.06703765","-0.12449849","9.921572","lay down","0"
"1133099288751024","3","-0.076614454","-0.12449849","9.940725","lay down","0"
"1133099308741649","3","-0.076614454","-0.15322891","9.931149","lay down","0"
"1133099328732274","3","-0.06703765","-0.12449849","9.950302","lay down","0"
"1133099348754149","3","-0.076614454","-0.1340753","9.911995","lay down","0"
"1133099368746336","3","-0.076614454","-0.1436521","9.940725","lay down","0"
"1133099388736961","3","-0.08619126","-0.12449849","9.950302","lay down","0"
"1133099408727586","3","-0.08619126","-0.1340753","9.931149","lay down","0"
"1133099428749461","3","-0.076614454","-0.1436521","9.940725","lay down","0"
"1133099448741649","3","-0.076614454","-0.12449849","9.931149","lay down","0"
"1133099468732274","3","-0.076614454","-0.12449849","9.950302","lay down","0"
"1133099488754149","3","-0.076614454","-0.1436521","9.931149","lay down","0"
"1133099508760399","3","-0.06703765","-0.12449849","9.959879","lay down","0"
"1133099528735399","3","-0.08619126","-0.1340753","9.940725","lay down","0"
"1133099548726024","3","-0.06703765","-0.1436521","9.959879","lay down","0"
"1133099568749461","3","-0.05746084","-0.1340753","9.940725","lay down","0"
"1133099588738524","3","-0.06703765","-0.12449849","9.950302","lay down","0"
"1133099608730711","3","-0.076614454","-0.12449849","9.950302","lay down","0"
"1133099628752586","3","-0.06703765","-0.1340753","9.950302","lay down","0"
"1133099648743211","3","-0.08619126","-0.1340753","9.950302","lay down","0"
"1133099668735399","3","-0.06703765","-0.1340753","9.950302","lay down","0"
"1133099688726024","3","-0.076614454","-0.1340753","9.940725","lay down","0"
"1133099708747899","3","-0.076614454","-0.12449849","9.940725","lay down","0"
"1133099728738524","3","-0.095768064","-0.1340753","9.959879","lay down","0"
"1133099748729149","3","-0.08619126","-0.1340753","9.931149","sit up","0"
"1133099768752586","3","-0.06703765","-0.1436521","9.959879","sit up","0"
"1133099788743211","3","-0.076614454","-0.1340753","9.892841","sit up","0"
"1133099808733836","3","-0.076614454","-0.1340753","9.931149","sit up","0"
"1133099828724461","3","-0.06703765","-0.15322891","9.931149","sit up","0"
"1133099848746336","3","-0.06703765","-0.1436521","9.911995","sit up","0"
"1133099868736961","3","-0.06703765","-0.1340753","9.921572","sit up","0"
"1133099888729149","3","-0.076614454","-0.1436521","9.902418","sit up","0"
"1133099908751024","3","-0.076614454","-0.15322891","9.911995","sit up","0"
"1133099928741649","3","-0.047884032","-0.15322891","10.036493","sit up","0"
"1133099948732274","3","-0.08619126","-0.18195933","10.0269165","sit up","0"
"1133099968755711","3","-0.05746084","-0.16280572","10.01734","sit up","0"
"1133099988746336","3","-0.08619126","-0.18195933","10.036493","sit up","0"
"1133100008736961","3","-0.06703765","-0.17238252","9.950302","sit up","0"
"1133100028727586","3","-0.06703765","-0.1436521","9.854534","sit up","0"
"1133100048751024","3","-0.038307227","-0.1436521","9.931149","sit up","0"
"1133100068741649","3","-0.019153614","-0.16280572","9.950302","sit up","0"
"1133100088732274","3","-0.02873042","-0.19153613","9.921572","sit up","0"
"1133100108754149","3","-0.1340753","-0.15322891","9.931149","sit up","0"
"1133100128744774","3","-0.08619126","-0.08619126","9.921572","sit up","0"
"1133100148735399","3","-0.2777274","-0.1340753","9.902418","sit up","0"
"1133100168727586","3","-0.02873042","-0.12449849","9.902418","sit up","0"
"1133100188749461","3","0.02873042","-0.1436521","9.950302","sit up","0"
"1133100208755711","3","0.019153614","-0.15322891","9.998186","sit up","0"
"1133100228730711","3","0.02873042","-0.076614454","9.950302","sit up","0"
"1133100248752586","3","-0.06703765","-0.1436521","9.950302","sit up","0"
"1133100268744774","3","-0.12449849","-0.12449849","9.931149","sit up","0"
"1133100288735399","3","-0.08619126","-0.095768064","9.940725","sit up","0"
"1133100308726024","3","-0.047884032","-0.1340753","9.950302","sit up","0"
"1133100328747899","3","-0.08619126","-0.11492168","9.931149","sit up","0"
"1133100348738524","3","-0.10534488","-0.11492168","9.931149","sit up","0"
"1133100368730711","3","-0.08619126","-0.1340753","9.911995","sit up","0"
"1133100388752586","3","-0.095768064","-0.11492168","9.921572","sit up","0"
"1133100408743211","3","-0.05746084","-0.10534488","9.921572","sit up","0"
"1133100428733836","3","-0.05746084","-0.12449849","9.931149","sit up","0"
"1133100448724461","3","-0.05746084","-0.11492168","9.931149","sit up","0"
"1133100468747899","3","0.0","-0.12449849","9.931149","sit up","0"
"1133100488738524","3","0.05746084","-0.12449849","9.931149","sit up","0"
"1133100508729149","3","0.05746084","-0.095768064","10.007763","sit up","0"
"1133100528751024","3","0.076614454","-0.12449849","10.007763","sit up","0"
"1133100548741649","3","0.11492168","-0.10534488","10.01734","sit up","0"
"1133100568732274","3","0.047884032","-0.12449849","9.988609","sit up","0"
"1133100588755711","3","0.10534488","-0.10534488","9.911995","sit up","0"
"1133100608746336","3","0.06703765","-0.1340753","9.902418","sit up","0"
"1133100628736961","3","-0.038307227","-0.16280572","9.921572","sit up","0"
"1133100648727586","3","-0.25857377","-0.1340753","9.864111","sit up","0"
"1133100668751024","3","-0.32561144","-0.21068975","9.80665","sit up","0"
"1133100688741649","3","-0.076614454","-0.1436521","9.864111","sit up","0"
"1133100708732274","3","-0.15322891","-0.23942018","9.921572","sit up","0"
"1133100728754149","3","-0.37349546","-0.2681506","9.931149","sit up","0"
"1133100748746336","3","-0.019153614","-0.20111294","9.854534","sit up","0"
"1133100768735399","3","0.0","-0.18195933","9.9790325","sit up","0"
"1133100788727586","3","0.076614454","-0.16280572","9.998186","sit up","0"
"1133100808749461","3","-0.16280572","-0.16280572","9.988609","sit up","0"
"1133100828740086","3","-0.095768064","-0.17238252","9.911995","sit up","0"
"1133100848730711","3","-0.02873042","-0.11492168","9.950302","sit up","0"
"1133100868754149","3","-0.076614454","-0.1436521","9.940725","sit up","0"
"1133100888744774","3","-0.20111294","-0.12449849","9.921572","sit up","0"
"1133100908751024","3","-0.11492168","-0.10534488","9.844957","sit up","0"
"1133100928726024","3","-0.009576807","-0.1340753","9.854534","sit up","0"
"1133100948747899","3","0.0","-0.15322891","9.931149","sit up","0"
"1133100968738524","3","-0.019153614","-0.12449849","9.902418","sit up","0"
"1133100988730711","3","-0.25857377","-0.15322891","9.844957","sit up","0"
"1133101008752586","3","0.047884032","-0.11492168","9.844957","sit up","0"
"1133101028743211","3","0.22026655","-0.1340753","10.007763","sit up","0"
"1133101048733836","3","0.12449849","-0.12449849","10.113108","sit up","0"
"1133101068726024","3","0.047884032","-0.11492168","9.988609","sit up","0"
"1133101088747899","3","0.038307227","-0.11492168","9.892841","sit up","0"
"1133101108738524","3","0.019153614","-0.15322891","9.950302","sit up","0"
"1133101128729149","3","-0.06703765","-0.12449849","9.959879","sit up","0"
"1133101148751024","3","0.009576807","-0.15322891","9.883265","sit up","0"
"1133101168743211","3","0.02873042","-0.11492168","9.950302","sit up","0"
"1133101188733836","3","0.038307227","-0.15322891","9.950302","sit up","0"
"1133101208724461","3","0.02873042","-0.1340753","9.969456","sit up","0"
"1133101228746336","3","0.05746084","-0.16280572","9.950302","sit up","0"
"1133101248738524","3","0.02873042","-0.15322891","9.940725","sit up","0"
"1133101268727586","3","-0.019153614","-0.17238252","9.902418","sit up","0"
"1133101288751024","3","0.047884032","-0.16280572","9.950302","sit up","0"
"1133101308741649","3","0.019153614","-0.16280572","9.998186","sit up","0"
"1133101328732274","3","0.019153614","-0.16280572","9.921572","sit up","0"
"1133101348754149","3","0.08619126","-0.19153613","9.950302","sit up","0"
"1133101368744774","3","0.11492168","-0.19153613","10.055647","sit up","0"
"1133101388736961","3","0.05746084","-0.18195933","10.007763","sit up","0"
"1133101408727586","3","-0.095768064","-0.20111294","9.902418","sit up","0"
"1133101428749461","3","0.019153614","-0.21068975","9.864111","sit up","0"
"1133101448740086","3","-0.25857377","-0.21068975","9.892841","sit up","0"
"1133101468730711","3","-0.15322891","-0.16280572","9.797073","sit up","0"
"1133101488754149","3","0.0","-0.18195933","9.835381","sit up","0"
"1133101508744774","3","0.0","-0.25857377","9.844957","sit up","0"
"1133101528735399","3","0.0","-0.22026655","9.883265","sit up","0"
"1133101548726024","3","0.02873042","-0.20111294","9.950302","sit up","0"
"1133101568749461","3","0.06703765","-0.18195933","9.9790325","sit up","0"
"1133101588740086","3","0.095768064","-0.18195933","9.9790325","sit up","0"
"1133101608747899","3","0.1436521","-0.19153613","10.007763","sit up","0"
"1133101628752586","3","0.0","-0.22026655","9.959879","sit up","0"
"1133101648743211","3","0.06703765","-0.19153613","9.921572","sit up","0"
"1133101668733836","3","0.076614454","-0.21068975","9.931149","sit up","0"
"1133101688726024","3","0.019153614","-0.22984336","9.940725","sit up","0"
"1133101708747899","3","0.05746084","-0.21068975","9.911995","sit up","0"
"1133101728738524","3","0.076614454","-0.17238252","9.959879","sit up","0"
"1133101748729149","3","-0.009576807","-0.16280572","9.950302","sit up","0"
"1133101768752586","3","0.0","-0.21068975","9.921572","sit up","0"
"1133101788743211","3","0.076614454","-0.20111294","9.940725","sit up","0"
"1133101808733836","3","0.038307227","-0.22984336","9.9790325","sit up","0"
"1133101828724461","3","0.02873042","-0.22026655","9.931149","sit up","0"
"1133101848746336","3","-0.009576807","-0.18195933","9.931149","sit up","0"
"1133101868736961","3","0.0","-0.19153613","9.892841","sit up","0"
"1133101888729149","3","0.009576807","-0.19153613","9.883265","sit up","0"
"1133101908751024","3","0.02873042","-0.20111294","9.931149","sit up","0"
"1133101928741649","3","0.047884032","-0.20111294","9.931149","sit up","0"
"1133101948732274","3","0.02873042","-0.22026655","9.921572","sit up","0"
"1133101968754149","3","0.02873042","-0.21068975","9.940725","sit up","0"
"1133101988746336","3","0.02873042","-0.18195933","9.940725","sit up","0"
"1133102008736961","3","0.02873042","-0.21068975","9.950302","sit up","0"
"1133102028727586","3","0.047884032","-0.22026655","9.940725","sit up","0"
"1133102048749461","3","0.0","-0.20111294","9.959879","sit up","0"
"1133102068741649","3","0.0","-0.17238252","9.921572","sit up","0"
"1133102088732274","3","0.019153614","-0.19153613","9.940725","sit up","0"
"1133102108754149","3","-0.019153614","-0.19153613","9.911995","sit up","0"
"1133102128744774","3","-0.019153614","-0.20111294","9.931149","sit up","0"
"1133102148735399","3","0.009576807","-0.20111294","9.921572","sit up","0"
"1133102168727586","3","0.0","-0.21068975","9.950302","sit up","0"
"1133102188749461","3","0.019153614","-0.21068975","9.902418","sit up","0"
"1133102208740086","3","0.0","-0.20111294","9.969456","sit up","0"
"1133102228730711","3","0.009576807","-0.19153613","9.864111","sit up","0"
"1133102248752586","3","0.0","-0.19153613","9.969456","sit up","0"
"1133102268744774","3","0.02873042","-0.22984336","9.902418","sit up","0"
"1133102288733836","3","0.009576807","-0.20111294","9.959879","sit up","0"
"1133102308741649","3","0.009576807","-0.22026655","9.950302","sit up","0"
"1133102328747899","3","0.047884032","-0.21068975","9.931149","sit up","0"
"1133102348738524","3","0.038307227","-0.21068975","9.931149","sit up","0"
"1133102368729149","3","0.02873042","-0.21068975","9.931149","sit up","0"
"1133102388752586","3","0.0","-0.19153613","9.911995","sit up","0"
"1133102408743211","3","0.019153614","-0.20111294","9.940725","sit up","0"
"1133102428733836","3","0.02873042","-0.21068975","9.959879","sit up","0"
"1133102448724461","3","0.019153614","-0.21068975","9.940725","sit up","0"
"1133102468746336","3","0.02873042","-0.21068975","9.940725","sit up","0"
"1133102488736961","3","0.009576807","-0.20111294","9.921572","sit up","0"
"1133102508729149","3","0.0","-0.20111294","9.921572","sit up","0"
"1133102528751024","3","0.009576807","-0.22026655","9.931149","sit up","0"
"1133102548741649","3","0.0","-0.20111294","9.902418","sit up","0"
"1133102568732274","3","-0.009576807","-0.22026655","9.940725","sit up","0"
"1133102588755711","3","0.0","-0.22026655","9.921572","sit up","0"
"1133102608746336","3","0.009576807","-0.20111294","9.950302","sit up","0"
"1133102628736961","3","0.019153614","-0.19153613","9.950302","sit up","0"
"1133102648729149","3","0.009576807","-0.19153613","9.931149","sit up","0"
"1133102668751024","3","0.0","-0.19153613","9.931149","sit up","0"
"1133102688741649","3","0.009576807","-0.20111294","9.911995","sit up","0"
"1133102708732274","3","0.02873042","-0.22026655","9.931149","sit up","0"
"1133102728754149","3","0.019153614","-0.19153613","9.959879","sit up","0"
"1133102748744774","3","0.009576807","-0.21068975","9.931149","sit up","0"
"1133102768735399","3","0.019153614","-0.20111294","9.921572","sit up","0"
"1133102788726024","3","0.038307227","-0.18195933","9.911995","sit up","0"
"1133102808749461","3","0.019153614","-0.22026655","9.940725","sit up","0"
"1133102828740086","3","0.009576807","-0.18195933","9.911995","sit up","0"
"1133102848730711","3","0.019153614","-0.21068975","9.921572","sit up","0"
"1133102868754149","3","0.009576807","-0.21068975","9.931149","sit up","0"
"1133102888744774","3","0.009576807","-0.19153613","9.921572","sit up","0"
"1133102908735399","3","0.019153614","-0.20111294","9.931149","sit up","0"
"1133102928726024","3","0.038307227","-0.20111294","9.931149","sit up","0"
"1133102948747899","3","0.0","-0.20111294","9.931149","sit up","0"
"1133102968738524","3","0.009576807","-0.20111294","9.931149","sit up","0"
"1133102988729149","3","0.02873042","-0.21068975","9.902418","sit up","0"
"1133103008768211","3","0.0","-0.19153613","9.940725","sit up","0"
"1133103028743211","3","0.0","-0.21068975","9.940725","sit up","0"
"1133103048733836","3","0.019153614","-0.20111294","9.931149","sit up","0"
"1133103068724461","3","0.0","-0.18195933","9.931149","sit up","0"
"1133103088747899","3","0.009576807","-0.20111294","9.950302","sit up","0"
"1133103108738524","3","0.019153614","-0.20111294","9.950302","sit up","0"
"1133103128729149","3","0.009576807","-0.20111294","9.931149","sit up","0"
"1133103148751024","3","0.009576807","-0.21068975","9.931149","sit up","0"
"1133103168741649","3","0.02873042","-0.20111294","9.940725","sit up","0"
"1133103188732274","3","0.009576807","-0.19153613","9.921572","sit up","0"
"1133103208755711","3","0.019153614","-0.18195933","9.940725","sit up","0"
"1133103228746336","3","0.019153614","-0.21068975","9.921572","sit up","0"
"1133103248736961","3","0.02873042","-0.22026655","9.931149","sit up","0"
"1133103268727586","3","0.009576807","-0.21068975","9.931149","sit up","0"
"1133103288751024","3","0.009576807","-0.20111294","9.940725","sit up","0"
"1133103308741649","3","0.019153614","-0.21068975","9.931149","sit up","0"
"1133103328732274","3","0.0","-0.19153613","9.959879","sit up","0"
"1133103348754149","3","0.038307227","-0.19153613","9.911995","sit up","0"
"1133103368744774","3","0.02873042","-0.22026655","9.921572","sit up","0"
"1133103388735399","3","0.009576807","-0.20111294","9.940725","sit up","0"
"1133103408727586","3","0.019153614","-0.21068975","9.950302","sit up","0"
"1133103428749461","3","0.02873042","-0.19153613","9.931149","sit up","0"
"1133103448740086","3","0.019153614","-0.19153613","9.921572","sit up","0"
"1133103468730711","3","0.009576807","-0.19153613","9.940725","sit up","0"
"1133103488754149","3","0.009576807","-0.19153613","9.902418","sit up","0"
"1133103508744774","3","0.019153614","-0.20111294","9.921572","sit up","0"
"1133103528735399","3","0.019153614","-0.19153613","9.940725","sit up","0"
"1133103548726024","3","0.02873042","-0.21068975","9.931149","sit up","0"
"1133103568747899","3","0.038307227","-0.20111294","9.959879","sit up","0"
"1133103588738524","3","0.02873042","-0.20111294","9.921572","sit up","0"
"1133103608730711","3","0.009576807","-0.20111294","9.940725","sit up","0"
"1133103628752586","3","0.009576807","-0.20111294","9.931149","sit up","0"
"1133103648743211","3","0.019153614","-0.20111294","9.921572","sit up","0"
"1133103668733836","3","0.02873042","-0.22026655","9.921572","sit up","0"
"1133103688724461","3","0.038307227","-0.22026655","9.911995","sit up","0"
"1133103708763524","3","0.019153614","-0.21068975","9.921572","sit up","0"
"1133103728738524","3","0.009576807","-0.21068975","9.950302","sit up","0"
"1133103748729149","3","0.009576807","-0.20111294","9.931149","stand up","0"
"1133103768751024","3","0.019153614","-0.20111294","9.931149","stand up","0"
"1133103788743211","3","0.019153614","-0.20111294","9.931149","stand up","0"
"1133103808733836","3","0.019153614","-0.22026655","9.950302","stand up","0"
"1133103828724461","3","0.019153614","-0.17238252","9.931149","stand up","0"
"1133103848746336","3","0.02873042","-0.22026655","9.921572","stand up","0"
"1133103868736961","3","0.009576807","-0.21068975","9.940725","stand up","0"
"1133103888727586","3","0.009576807","-0.20111294","9.921572","stand up","0"
"1133103908751024","3","0.009576807","-0.24899697","9.9790325","stand up","0"
"1133103928741649","3","0.0","-0.19153613","9.892841","stand up","0"
"1133103948732274","3","0.009576807","-0.18195933","9.854534","stand up","0"
"1133103968754149","3","0.02873042","-0.21068975","9.931149","stand up","0"
"1133103988744774","3","0.02873042","-0.24899697","10.04607","stand up","0"
"1133104008735399","3","0.02873042","-0.22984336","10.007763","stand up","0"
"1133104028727586","3","0.019153614","-0.18195933","9.902418","stand up","0"
"1133104048749461","3","0.0","-0.20111294","9.911995","stand up","0"
"1133104068740086","3","0.0","-0.19153613","9.892841","stand up","0"
"1133104088730711","3","0.0","-0.20111294","9.911995","stand up","0"
"1133104108754149","3","0.038307227","-0.21068975","9.921572","stand up","0"
"1133104128744774","3","-0.019153614","-0.20111294","9.940725","stand up","0"
"1133104148735399","3","0.0","-0.20111294","9.892841","stand up","0"
"1133104168726024","3","0.0","-0.22026655","9.902418","stand up","0"
"1133104188747899","3","0.009576807","-0.19153613","9.911995","stand up","0"
"1133104208738524","3","-0.02873042","-0.21068975","9.921572","stand up","0"
"1133104228730711","3","-0.02873042","-0.19153613","9.921572","stand up","0"
"1133104248752586","3","-0.009576807","-0.20111294","9.931149","stand up","0"
"1133104268743211","3","0.0","-0.20111294","9.931149","stand up","0"
"1133104288735399","3","-0.009576807","-0.18195933","9.940725","stand up","0"
"1133104308726024","3","-0.02873042","-0.20111294","9.921572","stand up","0"
"1133104328747899","3","0.0","-0.20111294","9.931149","stand up","0"
"1133104348738524","3","-0.05746084","-0.20111294","9.921572","stand up","0"
"1133104368729149","3","-0.06703765","-0.22026655","9.883265","stand up","0"
"1133104388751024","3","-0.095768064","-0.20111294","9.883265","stand up","0"
"1133104408758836","3","-0.1436521","-0.18195933","9.883265","stand up","0"
"1133104428733836","3","-0.25857377","-0.19153613","9.844957","stand up","0"
"1133104448724461","3","-0.2873042","-0.21068975","9.844957","stand up","0"
"1133104468746336","3","-0.1436521","-0.17238252","9.873688","stand up","0"
"1133104488736961","3","-0.11492168","-0.15322891","9.959879","stand up","0"
"1133104508729149","3","0.009576807","-0.20111294","9.988609","stand up","0"
"1133104528751024","3","-0.05746084","-0.20111294","10.141838","stand up","0"
"1133104548741649","3","0.047884032","-0.17238252","9.9790325","stand up","0"
"1133104568732274","3","-0.095768064","-0.24899697","9.959879","stand up","0"
"1133104588754149","3","-0.076614454","-0.12449849","9.940725","stand up","0"
"1133104608746336","3","-0.019153614","-0.22984336","9.911995","stand up","0"
"1133104628736961","3","-0.02873042","-0.20111294","9.9790325","stand up","0"
"1133104648727586","3","-0.05746084","-0.23942018","9.892841","stand up","0"
"1133104668749461","3","0.0","-0.1340753","9.911995","stand up","0"
"1133104688740086","3","-0.05746084","-0.17238252","9.9790325","stand up","0"
"1133104708732274","3","-0.10534488","-0.16280572","9.902418","stand up","0"
"1133104728754149","3","-0.076614454","-0.18195933","9.969456","stand up","0"
"1133104748744774","3","-0.1436521","-0.17238252","9.940725","stand up","0"
"1133104768735399","3","-0.12449849","-0.1340753","9.959879","stand up","0"
"1133104788726024","3","-0.076614454","-0.16280572","9.921572","stand up","0"
"1133104808749461","3","-0.08619126","-0.18195933","9.950302","stand up","0"
"1133104828740086","3","-0.095768064","-0.21068975","9.950302","stand up","0"
"1133104848730711","3","-0.11492168","-0.19153613","9.931149","stand up","0"
"1133104868752586","3","-0.18195933","-0.11492168","9.844957","stand up","0"
"1133104888743211","3","-0.1436521","-0.17238252","9.950302","stand up","0"
"1133104908735399","3","-0.08619126","-0.19153613","9.969456","stand up","0"
"1133104928726024","3","-0.08619126","-0.15322891","9.911995","stand up","0"
"1133104948747899","3","-0.1340753","-0.18195933","9.950302","stand up","0"
"1133104968738524","3","-0.076614454","-0.18195933","9.883265","stand up","0"
"1133104988729149","3","-0.05746084","-0.18195933","9.931149","stand up","0"
"1133105008752586","3","-0.12449849","-0.19153613","9.931149","stand up","0"
"1133105028743211","3","-0.05746084","-0.18195933","9.902418","stand up","0"
"1133105048733836","3","-0.076614454","-0.16280572","9.921572","stand up","0"
"1133105068724461","3","-0.10534488","-0.19153613","9.950302","stand up","0"
"1133105088746336","3","-0.08619126","-0.16280572","9.911995","stand up","0"
"1133105108754149","3","-0.06703765","-0.16280572","9.931149","stand up","0"
"1133105128729149","3","-0.11492168","-0.17238252","9.921572","stand up","0"
"1133105148751024","3","-0.06703765","-0.17238252","9.902418","stand up","0"
"1133105168741649","3","-0.10534488","-0.16280572","9.940725","stand up","0"
"1133105188732274","3","-0.10534488","-0.18195933","9.911995","stand up","0"
"1133105208755711","3","-0.10534488","-0.18195933","9.931149","stand up","0"
"1133105228746336","3","-0.095768064","-0.16280572","9.940725","stand up","0"
"1133105248736961","3","-0.10534488","-0.18195933","9.931149","stand up","0"
"1133105268727586","3","-0.08619126","-0.18195933","9.940725","stand up","0"
"1133105288749461","3","-0.095768064","-0.16280572","9.902418","stand up","0"
"1133105308741649","3","-0.095768064","-0.19153613","9.911995","stand up","0"
"1133105328732274","3","-0.08619126","-0.16280572","9.921572","stand up","0"
"1133105348754149","3","-0.10534488","-0.19153613","9.940725","stand up","0"
"1133105368744774","3","-0.095768064","-0.18195933","9.940725","stand up","0"
"1133105388735399","3","-0.08619126","-0.19153613","9.940725","stand up","0"
"1133105408727586","3","-0.095768064","-0.21068975","9.921572","stand up","0"
"1133105428749461","3","-0.095768064","-0.17238252","9.911995","stand up","0"
"1133105448740086","3","-0.076614454","-0.16280572","9.931149","stand up","0"
"1133105468730711","3","-0.11492168","-0.17238252","9.921572","stand up","0"
"1133105488752586","3","-0.08619126","-0.17238252","9.902418","stand up","0"
"1133105508744774","3","-0.095768064","-0.16280572","9.959879","stand up","0"
"1133105528733836","3","-0.08619126","-0.18195933","9.931149","stand up","0"
"1133105548726024","3","-0.095768064","-0.17238252","9.921572","stand up","0"
"1133105568747899","3","-0.10534488","-0.15322891","9.921572","stand up","0"
"1133105588738524","3","-0.08619126","-0.19153613","9.921572","stand up","0"
"1133105608729149","3","-0.095768064","-0.18195933","9.931149","stand up","0"
"1133105628752586","3","-0.08619126","-0.17238252","9.911995","stand up","0"
"1133105648743211","3","-0.08619126","-0.17238252","9.931149","stand up","0"
"1133105668733836","3","-0.095768064","-0.17238252","9.931149","stand up","0"
"1133105688724461","3","-0.08619126","-0.17238252","9.911995","stand up","0"
"1133105708746336","3","-0.10534488","-0.17238252","9.931149","stand up","0"
"1133105728738524","3","-0.08619126","-0.17238252","9.911995","stand up","0"
"1133105748729149","3","-0.10534488","-0.20111294","9.940725","stand up","0"
"1133105768751024","3","-0.10534488","-0.17238252","9.940725","stand up","0"
"1133105788741649","3","-0.076614454","-0.17238252","9.931149","stand up","0"
"1133105808749461","3","-0.10534488","-0.18195933","9.931149","stand up","0"
"1133105828755711","3","-0.095768064","-0.18195933","9.921572","stand up","0"
"1133105848746336","3","-0.095768064","-0.18195933","9.940725","stand up","0"
"1133105868736961","3","-0.08619126","-0.17238252","9.921572","stand up","0"
"1133105888727586","3","-0.10534488","-0.18195933","9.931149","stand up","0"
"1133105908751024","3","-0.095768064","-0.17238252","9.940725","stand up","0"
"1133105928741649","3","-0.08619126","-0.16280572","9.931149","stand up","0"
"1133105948732274","3","-0.095768064","-0.19153613","9.921572","stand up","0"
"1133105968754149","3","-0.076614454","-0.16280572","9.931149","stand up","0"
"1133105988744774","3","-0.06703765","-0.17238252","9.902418","stand up","0"
"1133106008735399","3","-0.08619126","-0.18195933","9.902418","stand up","0"
"1133106028727586","3","-0.076614454","-0.17238252","9.931149","stand up","0"
"1133106048749461","3","-0.076614454","-0.18195933","9.921572","stand up","0"
"1133106068740086","3","-0.095768064","-0.17238252","9.950302","stand up","0"
"1133106088730711","3","-0.10534488","-0.18195933","9.950302","stand up","0"
"1133106108752586","3","-0.08619126","-0.17238252","9.931149","stand up","0"
"1133106128744774","3","-0.10534488","-0.17238252","9.921572","stand up","0"
"1133106148733836","3","-0.095768064","-0.17238252","9.921572","stand up","0"
"1133106168726024","3","-0.095768064","-0.17238252","9.921572","stand up","0"
"1133106188747899","3","-0.10534488","-0.18195933","9.931149","stand up","0"
"1133106208738524","3","-0.08619126","-0.17238252","9.911995","stand up","0"
"1133106228730711","3","-0.08619126","-0.17238252","9.911995","stand up","0"
"1133106248752586","3","-0.10534488","-0.17238252","9.940725","stand up","0"
"1133106268743211","3","-0.10534488","-0.18195933","9.931149","stand up","0"
"1133106288733836","3","-0.095768064","-0.19153613","9.911995","stand up","0"
"1133106308726024","3","-0.095768064","-0.18195933","9.931149","stand up","0"
"1133106328747899","3","-0.095768064","-0.17238252","9.921572","stand up","0"
"1133106348738524","3","-0.06703765","-0.17238252","9.921572","stand up","0"
"1133106368729149","3","-0.08619126","-0.17238252","9.911995","stand up","0"
"1133106388751024","3","-0.08619126","-0.17238252","9.921572","stand up","0"
"1133106408743211","3","-0.076614454","-0.17238252","9.921572","stand up","0"
"1133106428733836","3","-0.10534488","-0.17238252","9.940725","stand up","0"
"1133106448755711","3","-0.08619126","-0.17238252","9.921572","stand up","0"
"1133106468746336","3","-0.076614454","-0.18195933","9.931149","stand up","0"
"1133106488736961","3","-0.095768064","-0.15322891","9.921572","stand up","0"
"1133106508744774","3","-0.11492168","-0.18195933","9.921572","stand up","0"
"1133106528751024","3","-0.095768064","-0.19153613","9.921572","stand up","0"
"1133106548741649","3","-0.095768064","-0.16280572","9.940725","stand up","0"
"1133106568732274","3","-0.10534488","-0.17238252","9.940725","stand up","0"
"1133106588754149","3","-0.11492168","-0.17238252","9.921572","stand up","0"
"1133106608744774","3","-0.10534488","-0.19153613","9.931149","stand up","0"
"1133106628736961","3","-0.08619126","-0.17238252","9.921572","stand up","0"
"1133106648727586","3","-0.08619126","-0.17238252","9.921572","stand up","0"
"1133106668749461","3","-0.095768064","-0.17238252","9.921572","stand up","0"
"1133106688740086","3","-0.10534488","-0.18195933","9.921572","stand up","0"
"1133106708732274","3","-0.095768064","-0.18195933","9.950302","stand up","0"
"1133106728754149","3","-0.095768064","-0.17238252","9.950302","stand up","0"
"1133106748744774","3","-0.10534488","-0.18195933","9.931149","stand up","0"
"1133106768735399","3","-0.08619126","-0.16280572","9.911995","stand up","0"
"1133106788726024","3","-0.10534488","-0.20111294","9.911995","stand up","0"
"1133106808747899","3","-0.095768064","-0.17238252","9.931149","stand up","0"
"1133106828738524","3","-0.095768064","-0.18195933","9.931149","stand up","0"
"1133106848730711","3","-0.08619126","-0.16280572","9.911995","stand up","0"
"1133106868752586","3","-0.08619126","-0.17238252","9.931149","stand up","0"
"1133106888743211","3","-0.06703765","-0.17238252","9.940725","stand up","0"
"1133106908733836","3","-0.10534488","-0.19153613","9.931149","stand up","0"
"1133106928724461","3","-0.095768064","-0.19153613","9.921572","stand up","0"
"1133106948747899","3","-0.095768064","-0.18195933","9.931149","stand up","0"
"1133106968738524","3","-0.10534488","-0.15322891","9.931149","stand up","0"
"1133106988729149","3","-0.095768064","-0.18195933","9.921572","stand up","0"
"1133107008751024","3","-0.10534488","-0.1436521","9.940725","stand up","0"
"1133107028743211","3","-0.095768064","-0.18195933","9.931149","stand up","0"
"1133107048733836","3","-0.11492168","-0.15322891","9.940725","stand up","0"
"1133107068724461","3","-0.10534488","-0.15322891","9.931149","stand up","0"
"1133107088746336","3","-0.08619126","-0.18195933","9.921572","stand up","0"
"1133107108736961","3","-0.08619126","-0.17238252","9.940725","stand up","0"
"1133107128729149","3","-0.095768064","-0.17238252","9.931149","stand up","0"
"1133107148749461","3","-0.10534488","-0.18195933","9.940725","stand up","0"
"1133107168741649","3","-0.095768064","-0.17238252","9.921572","stand up","0"
"1133107188732274","3","-0.095768064","-0.16280572","9.911995","stand up","0"
"1133107208771336","3","-0.06703765","-0.19153613","9.902418","stand up","0"
"1133107228746336","3","-0.095768064","-0.16280572","9.902418","stand up","0"
"1133107248736961","3","-0.095768064","-0.17238252","9.940725","stand up","0"
"1133107268727586","3","-0.10534488","-0.16280572","9.921572","stand up","0"
"1133107288749461","3","-0.08619126","-0.18195933","9.940725","stand up","0"
"1133107308740086","3","-0.095768064","-0.19153613","9.911995","stand up","0"
"1133107328730711","3","-0.076614454","-0.17238252","9.902418","stand up","0"
"1133107348752586","3","-0.08619126","-0.18195933","9.921572","stand up","0"
"1133107368744774","3","-0.08619126","-0.17238252","9.931149","stand up","0"
"1133107388735399","3","-0.05746084","-0.17238252","9.911995","stand up","0"
"1133107408726024","3","-0.095768064","-0.20111294","9.931149","stand up","0"
"1133107428749461","3","-0.095768064","-0.19153613","9.911995","stand up","0"
"1133107448738524","3","-0.095768064","-0.17238252","9.931149","stand up","0"
"1133107468730711","3","-0.06703765","-0.17238252","9.911995","stand up","0"
"1133107488752586","3","-0.08619126","-0.18195933","9.921572","stand up","0"
"1133107508743211","3","-0.095768064","-0.19153613","9.940725","stand up","0"
"1133107528733836","3","-0.10534488","-0.17238252","9.940725","stand up","0"
"1133107548726024","3","-0.095768064","-0.16280572","9.921572","stand up","0"
"1133107568747899","3","-0.095768064","-0.17238252","9.931149","stand up","0"
"1133107588738524","3","-0.095768064","-0.18195933","9.950302","stand up","0"
"1133107608729149","3","-0.095768064","-0.15322891","9.921572","stand up","0"
"1133107628752586","3","-0.10534488","-0.18195933","9.921572","stand up","0"
"1133107648743211","3","-0.08619126","-0.18195933","9.931149","stand up","0"
"1133107668733836","3","-0.095768064","-0.17238252","9.921572","stand up","0"
"1133107688724461","3","-0.10534488","-0.19153613","9.950302","stand up","0"
"1133107708746336","3","-0.10534488","-0.15322891","9.950302","stand up","0"
"1133107728736961","3","-0.095768064","-0.18195933","9.921572","stand up","0"
"1133107758740086","3","-0.08619126","-0.17238252","9.911995","none","1"
"1133107778730711","3","-0.08619126","-0.16280572","9.911995","none","1"
"1133107798752586","3","-0.08619126","-0.17238252","9.931149","none","1"
"1133107818743211","3","-0.11492168","-0.16280572","9.931149","none","1"
"1133107838733836","3","-0.095768064","-0.17238252","9.911995","none","1"
"1133107858726024","3","-0.08619126","-0.17238252","9.931149","none","1"
"1133107878747899","3","-0.10534488","-0.19153613","9.940725","none","1"
"1133107898738524","3","-0.08619126","-0.18195933","9.911995","none","1"
"1133107918746336","3","-0.10534488","-0.18195933","9.931149","none","1"
"1133107938752586","3","-0.095768064","-0.19153613","9.911995","none","1"
"1133107958743211","3","-0.10534488","-0.17238252","9.931149","none","1"
"1133107978733836","3","-0.10534488","-0.18195933","9.931149","none","1"
"1133107998724461","3","-0.10534488","-0.18195933","9.902418","none","1"
"1133108018746336","3","-0.076614454","-0.18195933","9.911995","none","1"
"1133108038736961","3","-0.08619126","-0.15322891","9.921572","none","1"
"1133108058727586","3","-0.11492168","-0.19153613","9.921572","none","1"
"1133108078751024","3","-0.10534488","-0.16280572","9.921572","none","1"
"1133108098741649","3","-0.08619126","-0.16280572","9.902418","none","1"
"1133108118732274","3","-0.11492168","-0.17238252","9.921572","none","1"
"1133108138755711","3","-0.076614454","-0.17238252","9.921572","none","1"
"1133108158746336","3","-0.10534488","-0.17238252","9.911995","none","1"
"1133108178736961","3","-0.095768064","-0.15322891","9.931149","none","1"
"1133108198727586","3","-0.08619126","-0.15322891","9.911995","none","1"
"1133108218749461","3","-0.095768064","-0.17238252","9.931149","none","1"
"1133108238741649","3","-0.095768064","-0.19153613","9.931149","none","1"
"1133108258732274","3","-0.10534488","-0.17238252","9.921572","none","1"
"1133108278754149","3","-0.10534488","-0.18195933","9.950302","none","1"
"1133108298744774","3","-0.095768064","-0.17238252","9.921572","none","1"
"1133108318735399","3","-0.095768064","-0.15322891","9.940725","none","1"
"1133108338727586","3","-0.095768064","-0.18195933","9.931149","none","1"
"1133108358749461","3","-0.095768064","-0.17238252","9.931149","none","1"
"1133108378740086","3","-0.095768064","-0.18195933","9.911995","none","1"
"1133108398730711","3","-0.08619126","-0.18195933","9.921572","none","1"
"1133108418752586","3","-0.076614454","-0.16280572","9.950302","none","1"
"1133108438743211","3","-0.08619126","-0.16280572","9.931149","none","1"
"1133108458733836","3","-0.095768064","-0.17238252","9.911995","none","1"
"1133108478726024","3","-0.095768064","-0.16280572","9.940725","none","1"
"1133108498747899","3","-0.076614454","-0.17238252","9.940725","none","1"
"1133108518738524","3","-0.095768064","-0.17238252","9.911995","none","1"
"1133108538729149","3","-0.095768064","-0.19153613","9.940725","none","1"
"1133108558752586","3","-0.10534488","-0.17238252","9.950302","none","1"
"1133108578743211","3","-0.095768064","-0.16280572","9.921572","none","1"
"1133108598733836","3","-0.11492168","-0.15322891","9.940725","none","1"
"1133108618741649","3","-0.11492168","-0.18195933","9.931149","none","1"
"1133108638746336","3","-0.08619126","-0.17238252","9.921572","none","1"
"1133108658736961","3","-0.095768064","-0.18195933","9.921572","none","1"
"1133108678729149","3","-0.08619126","-0.17238252","9.921572","none","1"
"1133108698751024","3","-0.11492168","-0.16280572","9.950302","none","1"
"1133108718741649","3","-0.10534488","-0.17238252","9.931149","none","1"
"1133108738732274","3","-0.10534488","-0.16280572","9.950302","none","1"
"1133108758755711","3","-0.10534488","-0.15322891","9.931149","none","1"
"1133108778746336","3","-0.095768064","-0.17238252","9.911995","none","1"
"1133108798736961","3","-0.095768064","-0.16280572","9.959879","none","1"
"1133108818727586","3","-0.095768064","-0.17238252","9.921572","none","1"
"1133108838749461","3","-0.11492168","-0.17238252","9.921572","none","1"
"1133108858741649","3","-0.095768064","-0.17238252","9.940725","none","1"
"1133108878732274","3","-0.08619126","-0.15322891","9.950302","none","1"
"1133108898754149","3","-0.10534488","-0.18195933","9.921572","none","1"
"1133108918744774","3","-0.08619126","-0.16280572","9.921572","none","1"
"1133108938736961","3","-0.10534488","-0.18195933","9.940725","none","1"
"1133108958727586","3","-0.095768064","-0.16280572","9.921572","none","1"
"1133108978749461","3","-0.10534488","-0.18195933","9.940725","none","1"
"1133108998740086","3","-0.10534488","-0.15322891","9.940725","none","1"
"1133109018730711","3","-0.10534488","-0.17238252","9.931149","none","1"
"1133109038754149","3","-0.08619126","-0.17238252","9.921572","none","1"
"1133109058744774","3","-0.10534488","-0.16280572","9.950302","none","1"
"1133109078735399","3","-0.11492168","-0.18195933","9.940725","none","1"
"1133109098726024","3","-0.095768064","-0.17238252","9.911995","none","1"
"1133109118747899","3","-0.095768064","-0.17238252","9.940725","none","1"
"1133109138738524","3","-0.08619126","-0.19153613","9.950302","none","1"
"1133109158729149","3","-0.095768064","-0.17238252","9.940725","none","1"
"1133109178752586","3","-0.10534488","-0.16280572","9.911995","none","1"
"1133109198743211","3","-0.10534488","-0.17238252","9.921572","none","1"
"1133109218733836","3","-0.095768064","-0.16280572","9.940725","none","1"
"1133109238724461","3","-0.095768064","-0.16280572","9.950302","none","1"
"1133109258747899","3","-0.095768064","-0.16280572","9.921572","none","1"
"1133109278738524","3","-0.11492168","-0.16280572","9.931149","none","1"
"1133109298729149","3","-0.095768064","-0.19153613","9.911995","none","1"
"1133109318768211","3","-0.11492168","-0.17238252","9.940725","none","1"
"1133109338743211","3","-0.10534488","-0.17238252","9.950302","none","1"
"1133109358732274","3","-0.08619126","-0.16280572","9.921572","none","1"
"1133109378755711","3","-0.10534488","-0.16280572","9.959879","none","1"
"1133109398746336","3","-0.10534488","-0.17238252","9.921572","none","1"
"1133109418736961","3","-0.095768064","-0.16280572","9.921572","none","1"
"1133109438727586","3","-0.11492168","-0.17238252","9.940725","none","1"
"1133109458751024","3","-0.095768064","-0.15322891","9.950302","none","1"
"1133109478741649","3","-0.08619126","-0.17238252","9.940725","none","1"
"1133109498732274","3","-0.10534488","-0.16280572","9.931149","none","1"
"1133109518754149","3","-0.095768064","-0.17238252","9.931149","none","1"
"1133109538744774","3","-0.095768064","-0.19153613","9.931149","none","1"
"1133109558735399","3","-0.10534488","-0.16280572","9.959879","none","1"
"1133109578727586","3","-0.095768064","-0.16280572","9.940725","none","1"
"1133109598749461","3","-0.076614454","-0.19153613","9.940725","none","1"
"1133109618740086","3","-0.095768064","-0.17238252","9.931149","none","1"
"1133109638730711","3","-0.08619126","-0.16280572","9.940725","none","1"
"1133109658752586","3","-0.095768064","-0.18195933","9.931149","none","1"
"1133109678744774","3","-0.11492168","-0.17238252","9.959879","none","1"
"1133109698735399","3","-0.095768064","-0.17238252","9.940725","none","1"
"1133109718726024","3","-0.10534488","-0.17238252","9.950302","none","1"
"1133109738747899","3","-0.076614454","-0.17238252","9.940725","none","1"
"1133109758738524","3","-0.11492168","-0.16280572","9.950302","none","1"
"1133109778730711","3","-0.095768064","-0.16280572","9.940725","none","1"
"1133109798752586","3","-0.095768064","-0.17238252","9.940725","none","1"
"1133109818743211","3","-0.076614454","-0.17238252","9.931149","none","1"
"1133109838733836","3","-0.12449849","-0.16280572","9.950302","none","1"
"1133109858726024","3","-0.095768064","-0.17238252","9.940725","none","1"
"1133109878747899","3","-0.08619126","-0.17238252","9.940725","none","1"
"1133109898738524","3","-0.10534488","-0.16280572","9.959879","none","1"
"1133109918729149","3","-0.095768064","-0.18195933","9.950302","none","1"
"1133109938752586","3","-0.10534488","-0.17238252","9.950302","none","1"
"1133109958741649","3","-0.095768064","-0.16280572","9.931149","none","1"
"1133109978733836","3","-0.10534488","-0.17238252","9.959879","none","1"
"1133109998724461","3","-0.11492168","-0.15322891","9.959879","none","1"
"1133110018763524","3","-0.095768064","-0.16280572","9.940725","none","1"
"1133110038736961","3","-0.10534488","-0.17238252","9.931149","none","1"
"1133110058727586","3","-0.08619126","-0.17238252","9.969456","none","1"
"1133110078751024","3","-0.095768064","-0.1436521","9.940725","none","1"
"1133110098741649","3","-0.10534488","-0.19153613","9.959879","none","1"
"1133110118732274","3","-0.10534488","-0.16280572","9.940725","none","1"
"1133110138754149","3","-0.08619126","-0.16280572","9.921572","none","1"
"1133110158744774","3","-0.10534488","-0.16280572","9.950302","none","1"
"1133110178735399","3","-0.10534488","-0.18195933","9.959879","none","1"
"1133110198727586","3","-0.08619126","-0.18195933","9.950302","none","1"
"1133110218749461","3","-0.095768064","-0.17238252","9.940725","none","1"
"1133110238740086","3","-0.095768064","-0.20111294","9.950302","none","1"
"1133110258730711","3","-0.11492168","-0.17238252","9.931149","none","1"
"1133110278754149","3","-0.095768064","-0.16280572","9.931149","none","1"
"1133110298744774","3","-0.095768064","-0.18195933","9.950302","none","1"
"1133110318735399","3","-0.095768064","-0.17238252","9.950302","none","1"
"1133110338726024","3","-0.10534488","-0.16280572","9.9790325","none","1"
"1133110358747899","3","-0.10534488","-0.17238252","9.940725","none","1"
"1133110378740086","3","-0.10534488","-0.17238252","9.959879","none","1"
"1133110398730711","3","-0.095768064","-0.17238252","9.959879","none","1"
"1133110418752586","3","-0.12449849","-0.18195933","9.959879","none","1"
"1133110438743211","3","-0.11492168","-0.17238252","9.950302","none","1"
"1133110458733836","3","-0.10534488","-0.1436521","9.940725","none","1"
"1133110478726024","3","-0.095768064","-0.18195933","9.940725","none","1"
"1133110498747899","3","-0.08619126","-0.15322891","9.940725","none","1"
"1133110518738524","3","-0.11492168","-0.16280572","9.950302","none","1"
"1133110538729149","3","-0.095768064","-0.18195933","9.940725","none","1"
"1133110558751024","3","-0.095768064","-0.16280572","9.940725","none","1"
"1133110578743211","3","-0.095768064","-0.18195933","9.950302","none","1"
"1133110598733836","3","-0.12449849","-0.18195933","9.950302","none","1"
"1133110618724461","3","-0.08619126","-0.19153613","9.950302","none","1"
"1133110638747899","3","-0.10534488","-0.16280572","9.931149","none","1"
"1133110658736961","3","-0.095768064","-0.16280572","9.959879","none","1"
"1133110678729149","3","-0.095768064","-0.17238252","9.940725","none","1"
"1133110698751024","3","-0.10534488","-0.18195933","9.950302","none","1"
"1133110718758836","3","-0.08619126","-0.16280572","9.9790325","none","1"
"1133110738732274","3","-0.11492168","-0.16280572","9.959879","none","1"
"1133110758755711","3","-0.10534488","-0.16280572","9.950302","none","1"
"1133110778746336","3","-0.10534488","-0.18195933","9.940725","none","1"
"1133110798736961","3","-0.10534488","-0.17238252","9.959879","none","1"
"1133110818727586","3","-0.095768064","-0.15322891","9.950302","none","1"
"1133110838751024","3","-0.08619126","-0.15322891","9.940725","none","1"
"1133110858740086","3","-0.10534488","-0.19153613","9.959879","none","1"
"1133110878730711","3","-0.095768064","-0.16280572","9.940725","none","1"
"1133110898754149","3","-0.11492168","-0.15322891","9.9790325","none","1"
"1133110918744774","3","-0.10534488","-0.16280572","9.959879","none","1"
"1133110938735399","3","-0.08619126","-0.17238252","9.950302","none","1"
"1133110958726024","3","-0.095768064","-0.18195933","9.950302","none","1"
"1133110978749461","3","-0.11492168","-0.18195933","9.950302","none","1"
"1133110998740086","3","-0.10534488","-0.17238252","9.940725","none","1"
"1133111018730711","3","-0.10534488","-0.17238252","9.950302","none","1"
"1133111038752586","3","-0.08619126","-0.18195933","9.940725","none","1"
"1133111058744774","3","-0.08619126","-0.18195933","9.940725","none","1"
"1133111078733836","3","-0.08619126","-0.19153613","9.940725","none","1"
"1133111098726024","3","-0.10534488","-0.18195933","9.950302","none","1"
"1133111118747899","3","-0.095768064","-0.17238252","9.969456","none","1"
"1133111138738524","3","-0.095768064","-0.17238252","9.959879","none","1"
"1133111158730711","3","-0.10534488","-0.16280572","9.940725","none","1"
"1133111178752586","3","-0.11492168","-0.16280572","9.959879","none","1"
"1133111198743211","3","-0.10534488","-0.15322891","9.940725","none","1"
"1133111218733836","3","-0.10534488","-0.18195933","9.940725","none","1"
"1133111238724461","3","-0.10534488","-0.16280572","9.950302","none","1"
"1133111258746336","3","-0.10534488","-0.18195933","9.940725","none","1"
"1133111278738524","3","-0.095768064","-0.18195933","9.940725","none","1"
"1133111298729149","3","-0.10534488","-0.17238252","9.959879","none","1"
"1133111318751024","3","-0.08619126","-0.16280572","9.959879","none","1"
"1133111338741649","3","-0.095768064","-0.17238252","9.931149","none","1"
"1133111358732274","3","-0.10534488","-0.16280572","9.950302","none","1"
"1133111378754149","3","-0.12449849","-0.18195933","9.940725","none","1"
"1133111398746336","3","-0.11492168","-0.16280572","9.940725","none","1"
"1133111418752586","3","-0.11492168","-0.16280572","9.969456","none","1"
"1133111438727586","3","-0.11492168","-0.15322891","9.950302","none","1"
"1133111458749461","3","-0.095768064","-0.17238252","9.959879","none","1"
"1133111478741649","3","-0.10534488","-0.17238252","9.931149","none","1"
"1133111498732274","3","-0.10534488","-0.17238252","9.959879","none","1"
"1133111518754149","3","-0.10534488","-0.15322891","9.959879","none","1"
"1133111538744774","3","-0.11492168","-0.17238252","9.959879","none","1"
"1133111558735399","3","-0.11492168","-0.1436521","9.9790325","none","1"
"1133111578727586","3","-0.10534488","-0.16280572","9.931149","none","1"
"1133111598749461","3","-0.08619126","-0.19153613","9.931149","none","1"
"1133111618740086","3","-0.095768064","-0.17238252","9.950302","none","1"
"1133111638730711","3","-0.08619126","-0.17238252","9.9790325","none","1"
"1133111658752586","3","-0.095768064","-0.19153613","9.940725","none","1"
"1133111678744774","3","-0.095768064","-0.15322891","9.940725","none","1"
"1133111698735399","3","-0.08619126","-0.17238252","9.950302","none","1"
"1133111718726024","3","-0.11492168","-0.17238252","9.950302","sit down","1"
"1133111738747899","3","-0.10534488","-0.18195933","9.940725","sit down","1"
"1133111758738524","3","-0.095768064","-0.18195933","9.959879","sit down","1"
"1133111778729149","3","-0.08619126","-0.16280572","9.931149","sit down","1"
"1133111798752586","3","-0.10534488","-0.18195933","9.969456","sit down","1"
"1133111818743211","3","-0.10534488","-0.16280572","9.940725","sit down","1"
"1133111838733836","3","-0.095768064","-0.17238252","9.969456","sit down","1"
"1133111858724461","3","-0.08619126","-0.18195933","9.950302","sit down","1"
"1133111878747899","3","-0.08619126","-0.21068975","10.04607","sit down","1"
"1133111898738524","3","-0.10534488","-0.20111294","9.959879","sit down","1"
"1133111918729149","3","-0.10534488","-0.16280572","9.883265","sit down","1"
"1133111938751024","3","-0.10534488","-0.17238252","9.902418","sit down","1"
"1133111958741649","3","-0.11492168","-0.18195933","9.883265","sit down","1"
"1133111978733836","3","-0.10534488","-0.16280572","9.902418","sit down","1"
"1133111998755711","3","-0.095768064","-0.17238252","9.950302","sit down","1"
"1133112018746336","3","-0.076614454","-0.18195933","9.969456","sit down","1"
"1133112038736961","3","-0.11492168","-0.15322891","9.969456","sit down","1"
"1133112058727586","3","-0.095768064","-0.16280572","9.940725","sit down","1"
"1133112078751024","3","-0.08619126","-0.15322891","9.950302","sit down","1"
"1133112098741649","3","-0.10534488","-0.15322891","9.969456","sit down","1"
"1133112118747899","3","-0.11492168","-0.15322891","9.940725","sit down","1"
"1133112138754149","3","-0.11492168","-0.19153613","9.950302","sit down","1"
"1133112158746336","3","-0.12449849","-0.17238252","9.950302","sit down","1"
"1133112178735399","3","-0.095768064","-0.17238252","9.931149","sit down","1"
"1133112198727586","3","-0.11492168","-0.17238252","9.940725","sit down","1"
"1133112218749461","3","-0.11492168","-0.16280572","9.959879","sit down","1"
"1133112238740086","3","-0.10534488","-0.18195933","9.940725","sit down","1"
"1133112258730711","3","-0.11492168","-0.16280572","9.959879","sit down","1"
"1133112278754149","3","-0.095768064","-0.16280572","9.940725","sit down","1"
"1133112298744774","3","-0.12449849","-0.18195933","9.940725","sit down","1"
"1133112318735399","3","-0.08619126","-0.16280572","9.959879","sit down","1"
"1133112338726024","3","-0.095768064","-0.17238252","9.940725","sit down","1"
"1133112358747899","3","-0.11492168","-0.17238252","9.940725","sit down","1"
"1133112378738524","3","-0.08619126","-0.18195933","9.950302","sit down","1"
"1133112398730711","3","-0.08619126","-0.15322891","9.940725","sit down","1"
"1133112418752586","3","-0.095768064","-0.16280572","9.969456","sit down","1"
"1133112438743211","3","-0.11492168","-0.15322891","9.931149","sit down","1"
"1133112458733836","3","-0.11492168","-0.18195933","9.959879","sit down","1"
"1133112478724461","3","-0.08619126","-0.18195933","9.902418","sit down","1"
"1133112498747899","3","-0.11492168","-0.15322891","9.940725","sit down","1"
"1133112518738524","3","-0.11492168","-0.16280572","9.940725","sit down","1"
"1133112538729149","3","-0.12449849","-0.18195933","9.911995","sit down","1"
"1133112558751024","3","-0.10534488","-0.18195933","9.950302","sit down","1"
"1133112578743211","3","-0.10534488","-0.15322891","9.921572","sit down","1"
"1133112598733836","3","-0.11492168","-0.17238252","9.969456","sit down","1"
"1133112618724461","3","-0.10534488","-0.1436521","9.892841","sit down","1"
"1133112638746336","3","-0.15322891","-0.15322891","9.969456","sit down","1"
"1133112658736961","3","-0.15322891","-0.19153613","9.892841","sit down","1"
"1133112678729149","3","-0.11492168","-0.16280572","9.950302","sit down","1"
"1133112698751024","3","-0.11492168","-0.15322891","9.921572","sit down","1"
"1133112718741649","3","-0.12449849","-0.16280572","9.883265","sit down","1"
"1133112738732274","3","-0.16280572","-0.17238252","9.950302","sit down","1"
"1133112758754149","3","-0.2873042","-0.21068975","9.892841","sit down","1"
"1133112778746336","3","-0.15322891","-0.19153613","9.864111","sit down","1"
"1133112798736961","3","-0.11492168","-0.15322891","9.998186","sit down","1"
"1133112818743211","3","0.1436521","-0.20111294","9.988609","sit down","1"
"1133112838749461","3","-0.11492168","-0.16280572","10.084377","sit down","1"
"1133112858740086","3","-0.06703765","-0.17238252","10.103531","sit down","1"
"1133112878730711","3","0.11492168","-0.18195933","10.180145","sit down","1"
"1133112898752586","3","0.1340753","-0.22026655","10.505757","sit down","1"
"1133112918744774","3","0.038307227","-0.2681506","10.342952","sit down","1"
"1133112938735399","3","0.21068975","-0.25857377","9.471462","sit down","1"
"1133112958726024","3","0.21068975","-0.23942018","9.040505","sit down","1"
"1133112978749461","3","-0.038307227","-0.076614454","9.864111","sit down","1"
"1133112998738524","3","-0.15322891","-0.12449849","10.505757","sit down","1"
"1133113018730711","3","-0.22984336","-0.21068975","9.758766","sit down","1"
"1133113038752586","3","-0.32561144","-0.1436521","9.500193","sit down","1"
"1133113058743211","3","-0.38307226","-0.17238252","9.873688","sit down","1"
"1133113078733836","3","-0.2777274","-0.21068975","10.036493","sit down","1"
"1133113098726024","3","-0.17238252","-0.17238252","9.873688","sit down","1"
"1133113118747899","3","-0.18195933","-0.16280572","9.864111","sit down","1"
"1133113138738524","3","-0.12449849","-0.19153613","9.854534","sit down","1"
"1133113158729149","3","-0.047884032","-0.18195933","9.873688","sit down","1"
"1133113178751024","3","0.0","-0.19153613","9.988609","sit down","1"
"1133113198743211","3","0.0","-0.18195933","10.007763","sit down","1"
"1133113218733836","3","0.06703765","-0.20111294","9.9790325","sit down","1"
"1133113238724461","3","0.038307227","-0.18195933","10.007763","sit down","1"
"1133113258746336","3","0.02873042","-0.18195933","9.9790325","sit down","1"
"1133113278736961","3","0.05746084","-0.18195933","9.988609","sit down","1"
"1133113298729149","3","0.019153614","-0.20111294","9.988609","sit down","1"
"1133113318751024","3","0.009576807","-0.17238252","9.931149","sit down","1"
"1133113338741649","3","0.009576807","-0.15322891","9.940725","sit down","1"
"1133113358732274","3","0.038307227","-0.19153613","10.007763","sit down","1"
"1133113378754149","3","0.047884032","-0.19153613","9.998186","sit down","1"
"1133113398746336","3","0.038307227","-0.17238252","9.998186","sit down","1"
"1133113418736961","3","0.02873042","-0.18195933","9.950302","sit down","1"
"1133113438727586","3","0.0","-0.16280572","9.921572","sit down","1"
"1133113458749461","3","-0.05746084","-0.15322891","9.931149","sit down","1"
"1133113478740086","3","-0.02873042","-0.1436521","9.892841","sit down","1"
"1133113498730711","3","-0.05746084","-0.17238252","9.892841","sit down","1"
"1133113518769774","3","-0.06703765","-0.16280572","9.864111","sit down","1"
"1133113538744774","3","-0.1340753","-0.16280572","9.873688","sit down","1"
"1133113558735399","3","-0.15322891","-0.17238252","9.883265","sit down","1"
"1133113578726024","3","-0.095768064","-0.1436521","9.883265","sit down","1"
"1133113598749461","3","-0.05746084","-0.15322891","9.911995","sit down","1"
"1133113618740086","3","-0.05746084","-0.17238252","9.902418","sit down","1"
"1133113638730711","3","-0.009576807","-0.19153613","9.883265","sit down","1"
"1133113658752586","3","0.0","-0.17238252","9.892841","sit down","1"
"1133113678743211","3","0.009576807","-0.19153613","9.931149","sit down","1"
"1133113698735399","3","0.019153614","-0.15322891","9.950302","sit down","1"
"1133113718726024","3","0.0","-0.16280572","9.921572","sit down","1"
"1133113738747899","3","0.019153614","-0.19153613","9.969456","sit down","1"
"1133113758738524","3","0.05746084","-0.18195933","9.969456","sit down","1"
"1133113778729149","3","0.06703765","-0.20111294","9.998186","sit down","1"
"1133113798752586","3","0.038307227","-0.18195933","9.988609","sit down","1"
"1133113818743211","3","0.02873042","-0.18195933","9.950302","sit down","1"
"1133113838733836","3","0.009576807","-0.17238252","9.921572","sit down","1"
"1133113858724461","3","0.009576807","-0.19153613","9.940725","sit down","1"
"1133113878746336","3","0.0","-0.17238252","9.921572","sit down","1"
"1133113898736961","3","0.019153614","-0.18195933","9.959879","sit down","1"
"1133113918729149","3","0.0","-0.16280572","9.940725","sit down","1"
"1133113938751024","3","-0.019153614","-0.16280572","9.911995","sit down","1"
"1133113958741649","3","-0.047884032","-0.16280572","9.921572","sit down","1"
"1133113978732274","3","-0.02873042","-0.17238252","9.902418","sit down","1"
"1133113998755711","3","-0.038307227","-0.16280572","9.902418","sit down","1"
"1133114018746336","3","-0.038307227","-0.16280572","9.892841","sit down","1"
"1133114038736961","3","-0.038307227","-0.17238252","9.950302","sit down","1"
"1133114058727586","3","-0.02873042","-0.18195933","9.940725","sit down","1"
"1133114078749461","3","0.0","-0.18195933","9.911995","sit down","1"
"1133114098741649","3","0.0","-0.18195933","9.931149","sit down","1"
"1133114118732274","3","0.0","-0.17238252","9.931149","sit down","1"
"1133114138754149","3","0.0","-0.17238252","9.931149","sit down","1"
"1133114158744774","3","0.019153614","-0.17238252","9.931149","sit down","1"
"1133114178735399","3","0.02873042","-0.19153613","9.940725","sit down","1"
"1133114198726024","3","0.02873042","-0.20111294","9.940725","sit down","1"
"1133114218765086","3","0.0","-0.16280572","9.931149","sit down","1"
"1133114238740086","3","0.02873042","-0.18195933","9.959879","sit down","1"
"1133114258730711","3","0.0","-0.18195933","9.931149","sit down","1"
"1133114278752586","3","0.0","-0.17238252","9.959879","sit down","1"
"1133114298744774","3","-0.009576807","-0.18195933","9.902418","sit down","1"
"1133114318735399","3","-0.009576807","-0.16280572","9.911995","sit down","1"
"1133114338726024","3","0.0","-0.17238252","9.931149","sit down","1"
"1133114358747899","3","-0.038307227","-0.18195933","9.931149","sit down","1"
"1133114378738524","3","-0.019153614","-0.17238252","9.911995","sit down","1"
"1133114398729149","3","-0.02873042","-0.18195933","9.959879","sit down","1"
"1133114418752586","3","-0.02873042","-0.1436521","9.940725","sit down","1"
"1133114438743211","3","-0.009576807","-0.16280572","9.931149","sit down","1"
"1133114458733836","3","-0.019153614","-0.15322891","9.940725","sit down","1"
"1133114478724461","3","-0.02873042","-0.17238252","9.940725","sit down","1"
"1133114498746336","3","0.0","-0.17238252","9.931149","sit down","1"
"1133114518738524","3","0.009576807","-0.19153613","9.921572","sit down","1"
"1133114538729149","3","0.0","-0.15322891","9.950302","sit down","1"
"1133114558751024","3","0.0","-0.16280572","9.950302","sit down","1"
"1133114578741649","3","0.009576807","-0.17238252","9.940725","sit down","1"
"1133114598732274","3","0.019153614","-0.18195933","9.931149","sit down","1"
"1133114618755711","3","0.009576807","-0.17238252","9.950302","sit down","1"
"1133114638746336","3","0.0","-0.18195933","9.911995","sit down","1"
"1133114658736961","3","0.0","-0.17238252","9.931149","sit down","1"
"1133114678727586","3","0.0","-0.17238252","9.931149","sit down","1"
"1133114698751024","3","-0.019153614","-0.17238252","9.911995","sit down","1"
"1133114718741649","3","0.0","-0.16280572","9.921572","sit down","1"
"1133114738732274","3","-0.019153614","-0.17238252","9.892841","sit down","1"
"1133114758754149","3","-0.019153614","-0.15322891","9.940725","sit down","1"
"1133114778744774","3","0.0","-0.16280572","9.950302","sit down","1"
"1133114798735399","3","0.0","-0.18195933","9.911995","sit down","1"
"1133114818727586","3","0.0","-0.17238252","9.902418","sit down","1"
"1133114838749461","3","0.0","-0.18195933","9.931149","sit down","1"
"1133114858740086","3","-0.02873042","-0.16280572","9.911995","sit down","1"
"1133114878730711","3","-0.02873042","-0.19153613","9.921572","sit down","1"
"1133114898754149","3","0.0","-0.17238252","9.911995","sit down","1"
"1133114918760399","3","0.009576807","-0.16280572","9.931149","sit down","1"
"1133114938735399","3","0.0","-0.16280572","9.921572","sit down","1"
"1133114958726024","3","0.0","-0.18195933","9.921572","sit down","1"
"1133114978747899","3","0.0","-0.17238252","9.940725","sit down","1"
"1133114998738524","3","0.0","-0.18195933","9.921572","sit down","1"
"1133115018729149","3","0.0","-0.17238252","9.940725","sit down","1"
"1133115038752586","3","0.02873042","-0.18195933","9.950302","sit down","1"
"1133115058743211","3","0.0","-0.17238252","9.931149","sit down","1"
"1133115078733836","3","0.0","-0.17238252","9.902418","sit down","1"
"1133115098726024","3","0.009576807","-0.18195933","9.921572","sit down","1"
"1133115118747899","3","0.009576807","-0.18195933","9.921572","sit down","1"
"1133115138738524","3","-0.009576807","-0.18195933","9.921572","sit down","1"
"1133115158729149","3","0.0","-0.16280572","9.921572","sit down","1"
"1133115178751024","3","0.009576807","-0.17238252","9.892841","sit down","1"
"1133115198741649","3","0.0","-0.17238252","9.931149","sit down","1"
"1133115218733836","3","-0.009576807","-0.16280572","9.921572","sit down","1"
"1133115238755711","3","-0.009576807","-0.16280572","9.931149","sit down","1"
"1133115258746336","3","0.0","-0.17238252","9.921572","sit down","1"
"1133115278736961","3","-0.009576807","-0.16280572","9.931149","sit down","1"
"1133115298727586","3","0.0","-0.16280572","9.950302","sit down","1"
"1133115318751024","3","0.0","-0.18195933","9.931149","sit down","1"
"1133115338741649","3","0.0","-0.16280572","9.940725","sit down","1"
"1133115358732274","3","0.009576807","-0.17238252","9.940725","sit down","1"
"1133115378754149","3","0.0","-0.17238252","9.911995","sit down","1"
"1133115398746336","3","-0.009576807","-0.16280572","9.940725","sit down","1"
"1133115418735399","3","-0.009576807","-0.19153613","9.921572","sit down","1"
"1133115438727586","3","0.009576807","-0.17238252","9.940725","sit down","1"
"1133115458749461","3","0.0","-0.18195933","9.931149","sit down","1"
"1133115478740086","3","0.0","-0.17238252","9.911995","sit down","1"
"1133115498730711","3","0.0","-0.18195933","9.892841","sit down","1"
"1133115518754149","3","-0.009576807","-0.16280572","9.911995","sit down","1"
"1133115538744774","3","0.0","-0.19153613","9.921572","sit down","1"
"1133115558735399","3","-0.009576807","-0.18195933","9.931149","sit down","1"
"1133115578726024","3","0.009576807","-0.18195933","9.921572","sit down","1"
"1133115598749461","3","-0.009576807","-0.17238252","9.892841","sit down","1"
"1133115618755711","3","0.0","-0.18195933","9.931149","sit down","1"
"1133115638730711","3","-0.019153614","-0.18195933","9.940725","sit down","1"
"1133115658752586","3","0.0","-0.17238252","9.931149","sit down","1"
"1133115678743211","3","0.019153614","-0.17238252","9.902418","sit down","1"
"1133115698733836","3","0.0","-0.17238252","9.931149","sit down","1"
"1133115718724461","3","-0.009576807","-0.18195933","9.921572","lay down","1"
"1133115738747899","3","0.0","-0.15322891","9.940725","lay down","1"
"1133115758738524","3","0.0","-0.19153613","9.921572","lay down","1"
"1133115778729149","3","-0.019153614","-0.17238252","9.931149","lay down","1"
"1133115798751024","3","0.0","-0.16280572","9.921572","lay down","1"
"1133115818743211","3","0.009576807","-0.16280572","9.902418","lay down","1"
"1133115838732274","3","0.0","-0.17238252","9.911995","lay down","1"
"1133115858724461","3","-0.009576807","-0.17238252","9.892841","lay down","1"
"1133115878746336","3","-0.009576807","-0.16280572","9.911995","lay down","1"
"1133115898736961","3","0.0","-0.21068975","10.01734","lay down","1"
"1133115918727586","3","0.0","-0.21068975","10.055647","lay down","1"
"1133115938751024","3","-0.019153614","-0.21068975","9.950302","lay down","1"
"1133115958741649","3","0.0","-0.21068975","10.036493","lay down","1"
"1133115978732274","3","-0.019153614","-0.21068975","9.959879","lay down","1"
"1133115998754149","3","0.0","-0.16280572","9.873688","lay down","1"
"1133116018746336","3","0.0","-0.18195933","9.902418","lay down","1"
"1133116038735399","3","0.0","-0.17238252","9.902418","lay down","1"
"1133116058727586","3","-0.009576807","-0.17238252","9.931149","lay down","1"
"1133116078749461","3","0.0","-0.18195933","9.902418","lay down","1"
"1133116098740086","3","-0.009576807","-0.17238252","9.931149","lay down","1"
"1133116118730711","3","0.0","-0.18195933","9.931149","lay down","1"
"1133116138754149","3","0.0","-0.18195933","9.950302","lay down","1"
"1133116158744774","3","0.35434186","-0.22026655","9.950302","lay down","1"
"1133116178735399","3","-0.02873042","-0.18195933","9.921572","lay down","1"
"1133116198727586","3","-0.23942018","-0.20111294","9.950302","lay down","1"
"1133116218747899","3","-0.047884032","-0.21068975","9.873688","lay down","1"
"1133116238740086","3","-0.019153614","-0.18195933","9.921572","lay down","1"
"1133116258730711","3","-0.019153614","-0.1340753","9.940725","lay down","1"
"1133116278752586","3","-0.009576807","-0.1436521","9.931149","lay down","1"
"1133116298743211","3","0.009576807","-0.16280572","9.940725","lay down","1"
"1133116318751024","3","0.009576807","-0.16280572","9.921572","lay down","1"
"1133116338726024","3","0.0","-0.17238252","9.931149","lay down","1"
"1133116358747899","3","0.0","-0.16280572","9.921572","lay down","1"
"1133116378738524","3","0.0","-0.17238252","9.911995","lay down","1"
"1133116398729149","3","0.0","-0.16280572","9.950302","lay down","1"
"1133116418752586","3","0.009576807","-0.15322891","9.931149","lay down","1"
"1133116438743211","3","0.02873042","-0.18195933","9.921572","lay down","1"
"1133116458733836","3","0.009576807","-0.18195933","9.950302","lay down","1"
"1133116478724461","3","0.019153614","-0.16280572","9.940725","lay down","1"
"1133116498746336","3","0.019153614","-0.1436521","9.950302","lay down","1"
"1133116518736961","3","0.009576807","-0.17238252","9.931149","lay down","1"
"1133116538729149","3","0.1436521","-0.16280572","9.959879","lay down","1"
"1133116558751024","3","0.06703765","-0.20111294","10.04607","lay down","1"
"1133116578741649","3","0.076614454","-0.17238252","9.940725","lay down","1"
"1133116598732274","3","0.02873042","-0.15322891","9.931149","lay down","1"
"1133116618754149","3","0.08619126","-0.16280572","9.911995","lay down","1"
"1133116638744774","3","0.08619126","-0.17238252","9.902418","lay down","1"
"1133116658736961","3","0.047884032","-0.08619126","9.921572","lay down","1"
"1133116678727586","3","0.0","-0.1340753","9.902418","lay down","1"
"1133116698749461","3","0.0","-0.15322891","9.9790325","lay down","1"
"1133116718740086","3","0.1436521","-0.1436521","9.911995","lay down","1"
"1133116738730711","3","0.17238252","-0.18195933","9.9790325","lay down","1"
"1133116758754149","3","0.08619126","-0.18195933","9.959879","lay down","1"
"1133116778744774","3","0.05746084","-0.15322891","9.902418","lay down","1"
"1133116798735399","3","0.0","-0.15322891","9.873688","lay down","1"
"1133116818726024","3","-0.019153614","-0.15322891","9.883265","lay down","1"
"1133116838749461","3","0.019153614","-0.19153613","9.873688","lay down","1"
"1133116858738524","3","-0.047884032","-0.1340753","9.883265","lay down","1"
"1133116878730711","3","0.0","-0.1436521","9.883265","lay down","1"
"1133116898752586","3","-0.038307227","-0.15322891","9.873688","lay down","1"
"1133116918744774","3","0.02873042","-0.11492168","9.911995","lay down","1"
"1133116938733836","3","0.08619126","-0.11492168","9.911995","lay down","1"
"1133116958726024","3","0.08619126","-0.10534488","9.940725","lay down","1"
"1133116978747899","3","-0.047884032","-0.1340753","9.854534","lay down","1"
"1133116998738524","3","0.12449849","-0.10534488","9.902418","lay down","1"
"1133117018746336","3","0.19153613","-0.18195933","9.959879","lay down","1"
"1133117038752586","3","0.17238252","-0.16280572","10.04607","lay down","1"
"1133117058743211","3","0.22026655","-0.05746084","9.959879","lay down","1"
"1133117078733836","3","0.22984336","-0.10534488","10.007763","lay down","1"
"1133117098724461","3","0.17238252","-0.019153614","10.103531","lay down","1"
"1133117118746336","3","0.23942018","-0.02873042","9.988609","lay down","1"
"1133117138736961","3","0.20111294","-0.095768064","9.902418","lay down","1"
"1133117158729149","3","0.08619126","-0.10534488","9.873688","lay down","1"
"1133117178751024","3","0.009576807","-0.20111294","9.854534","lay down","1"
"1133117198741649","3","-0.21068975","-0.18195933","9.892841","lay down","1"
"1133117218732274","3","-0.33518824","-0.24899697","9.835381","lay down","1"
"1133117238754149","3","-0.2681506","-0.2681506","9.902418","lay down","1"
"1133117258746336","3","-0.21068975","-0.19153613","9.883265","lay down","1"
"1133117278736961","3","-0.25857377","-0.25857377","9.931149","lay down","1"
"1133117298727586","3","-0.31603462","-0.2681506","9.883265","lay down","1"
"1133117318749461","3","-0.19153613","-0.22984336","9.797073","lay down","1"
"1133117338741649","3","-0.02873042","-0.36391866","9.854534","lay down","1"
"1133117358732274","3","0.31603462","-0.15322891","9.9790325","lay down","1"
"1133117378754149","3","0.095768064","-0.41180268","10.0269165","lay down","1"
"1133117398744774","3","-0.009576807","-0.10534488","10.237606","lay down","1"
"1133117418735399","3","0.02873042","0.10534488","9.80665","lay down","1"
"1133117438726024","3","0.06703765","-0.20111294","9.844957","lay down","1"
"1133117458749461","3","0.2681506","-0.1436521","10.113108","lay down","1"
"1133117478738524","3","0.0","-0.15322891","10.01734","lay down","1"
"1133117498730711","3","0.0","-0.16280572","9.950302","lay down","1"
"1133117518752586","3","0.076614454","-0.17238252","9.921572","lay down","1"
"1133117538743211","3","0.019153614","-0.17238252","9.921572","lay down","1"
"1133117558735399","3","0.0","-0.21068975","9.931149","lay down","1"
"1133117578726024","3","0.05746084","-0.095768064","9.9790325","lay down","1"
"1133117598747899","3","-0.019153614","-0.10534488","9.940725","lay down","1"
"1133117618738524","3","-0.08619126","-0.11492168","9.969456","lay down","1"
"1133117638729149","3","-0.33518824","-0.08619126","9.911995","lay down","1"
"1133117658752586","3","-0.33518824","-0.22026655","9.873688","lay down","1"
"1133117678743211","3","-0.23942018","-0.25857377","9.892841","lay down","1"
"1133117698733836","3","-0.2777274","-0.30645782","9.9790325","lay down","1"
"1133117718741649","3","-0.2873042","-0.1340753","9.959879","lay down","1"
"1133117738747899","3","-0.1340753","0.009576807","9.844957","lay down","1"
"1133117758738524","3","0.047884032","-0.1436521","9.835381","lay down","1"
"1133117778729149","3","-0.038307227","-0.02873042","10.084377","lay down","1"
"1133117798751024","3","0.05746084","-0.24899697","10.0269165","lay down","1"
"1133117818741649","3","-0.12449849","0.05746084","10.113108","lay down","1"
"1133117838733836","3","-0.02873042","-0.05746084","10.055647","lay down","1"
"1133117858755711","3","-0.009576807","-0.047884032","9.787497","lay down","1"
"1133117878746336","3","-0.30645782","-0.12449849","10.007763","lay down","1"
"1133117898736961","3","-0.12449849","-0.1436521","10.01734","lay down","1"
"1133117918727586","3","-0.038307227","-0.095768064","9.758766","lay down","1"
"1133117938751024","3","-0.16280572","-0.1436521","9.959879","lay down","1"
"1133117958741649","3","-0.12449849","-0.16280572","9.998186","lay down","1"
"1133117978732274","3","-0.05746084","-0.1436521","9.883265","lay down","1"
"1133117998754149","3","-0.06703765","-0.19153613","9.959879","lay down","1"
"1133118018744774","3","-0.05746084","-0.17238252","9.988609","lay down","1"
"1133118038735399","3","-0.08619126","-0.18195933","9.911995","lay down","1"
"1133118058727586","3","-0.06703765","-0.17238252","9.911995","lay down","1"
"1133118078749461","3","0.0","-0.16280572","9.921572","lay down","1"
"1133118098740086","3","-0.06703765","-0.1436521","9.931149","lay down","1"
"1133118118730711","3","-0.095768064","-0.16280572","9.931149","lay down","1"
"1133118138752586","3","-0.1436521","-0.1340753","9.892841","lay down","1"
"1133118158744774","3","-0.17238252","-0.1436521","9.873688","lay down","1"
"1133118178735399","3","-0.095768064","-0.1340753","9.892841","lay down","1"
"1133118198726024","3","-0.076614454","-0.1340753","9.931149","lay down","1"
"1133118218747899","3","-0.047884032","-0.15322891","9.902418","lay down","1"
"1133118238738524","3","-0.047884032","-0.1436521","9.931149","lay down","1"
"1133118258729149","3","-0.05746084","-0.16280572","9.940725","lay down","1"
"1133118278752586","3","-0.019153614","-0.1340753","9.931149","lay down","1"
"1133118298743211","3","-0.06703765","-0.11492168","9.902418","lay down","1"
"1133118318733836","3","-0.06703765","-0.10534488","9.902418","lay down","1"
"1133118338724461","3","-0.08619126","-0.12449849","9.921572","lay down","1"
"1133118358747899","3","-0.076614454","-0.1436521","9.911995","lay down","1"
"1133118378736961","3","-0.05746084","-0.1436521","9.921572","lay down","1"
"1133118398729149","3","-0.06703765","-0.16280572","9.931149","lay down","1"
"1133118418768211","3","-0.038307227","-0.12449849","9.931149","lay down","1"
"1133118438741649","3","-0.047884032","-0.15322891","9.931149","lay down","1"
"1133118458733836","3","-0.076614454","-0.15322891","9.950302","lay down","1"
"1133118478724461","3","-0.06703765","-0.16280572","9.931149","lay down","1"
"1133118498746336","3","-0.06703765","-0.17238252","9.921572","lay down","1"
"1133118518736961","3","-0.047884032","-0.17238252","9.931149","lay down","1"
"1133118538727586","3","-0.047884032","-0.1340753","9.940725","lay down","1"
"1133118558749461","3","-0.047884032","-0.17238252","9.950302","lay down","1"
"1133118578741649","3","-0.047884032","-0.15322891","9.950302","lay down","1"
"1133118598732274","3","-0.06703765","-0.16280572","9.892841","lay down","1"
"1133118618754149","3","-0.076614454","-0.1436521","9.921572","lay down","1"
"1133118638746336","3","-0.08619126","-0.1436521","9.940725","lay down","1"
"1133118658736961","3","-0.076614454","-0.1340753","9.931149","lay down","1"
"1133118678727586","3","-0.08619126","-0.12449849","9.931149","lay down","1"
"1133118698749461","3","-0.08619126","-0.1340753","9.950302","lay down","1"
"1133118718740086","3","-0.095768064","-0.1436521","9.921572","lay down","1"
"1133118738730711","3","-0.076614454","-0.15322891","9.921572","lay down","1"
"1133118758752586","3","-0.08619126","-0.15322891","9.902418","lay down","1"
"1133118778744774","3","-0.08619126","-0.15322891","9.940725","lay down","1"
"1133118798735399","3","-0.08619126","-0.15322891","9.902418","lay down","1"
"1133118818726024","3","-0.06703765","-0.12449849","9.931149","lay down","1"
"1133118838747899","3","-0.06703765","-0.1340753","9.921572","lay down","1"
"1133118858740086","3","-0.08619126","-0.16280572","9.902418","lay down","1"
"1133118878730711","3","-0.08619126","-0.1436521","9.911995","lay down","1"
"1133118898752586","3","-0.076614454","-0.1436521","9.931149","lay down","1"
"1133118918743211","3","-0.076614454","-0.1340753","9.931149","lay down","1"
"1133118938735399","3","-0.08619126","-0.1436521","9.902418","lay down","1"
"1133118958726024","3","-0.047884032","-0.15322891","9.921572","lay down","1"
"1133118978747899","3","-0.076614454","-0.15322891","9.950302","lay down","1"
"1133118998738524","3","-0.05746084","-0.15322891","9.921572","lay down","1"
"1133119018729149","3","-0.076614454","-0.1340753","9.911995","lay down","1"
"1133119038751024","3","-0.076614454","-0.1436521","9.931149","lay down","1"
"1133119058743211","3","-0.06703765","-0.17238252","9.911995","lay down","1"
"1133119078733836","3","-0.06703765","-0.1436521","9.950302","lay down","1"
"1133119098724461","3","-0.06703765","-0.1436521","9.911995","lay down","1"
"1133119118763524","3","-0.076614454","-0.1436521","9.950302","lay down","1"
"1133119138736961","3","-0.06703765","-0.15322891","9.931149","lay down","1"
"1133119158727586","3","-0.05746084","-0.15322891","9.931149","lay down","1"
"1133119178751024","3","-0.076614454","-0.1340753","9.911995","lay down","1"
"1133119198741649","3","-0.08619126","-0.15322891","9.911995","lay down","1"
"1133119218732274","3","-0.05746084","-0.1436521","9.940725","lay down","1"
"1133119238754149","3","-0.095768064","-0.1436521","9.911995","lay down","1"
"1133119258746336","3","-0.08619126","-0.15322891","9.911995","lay down","1"
"1133119278736961","3","-0.08619126","-0.15322891","9.940725","lay down","1"
"1133119298727586","3","-0.076614454","-0.1340753","9.921572","lay down","1"
"1133119318749461","3","-0.076614454","-0.11492168","9.921572","lay down","1"
"1133119338740086","3","-0.05746084","-0.1436521","9.940725","lay down","1"
"1133119358732274","3","-0.06703765","-0.15322891","9.911995","lay down","1"
"1133119378754149","3","-0.076614454","-0.1436521","9.902418","lay down","1"
"1133119398744774","3","-0.08619126","-0.1436521","9.921572","lay down","1"
"1133119418735399","3","-0.05746084","-0.1436521","9.940725","lay down","1"
"1133119438726024","3","-0.06703765","-0.15322891","9.921572","lay down","1"
"1133119458749461","3","-0.08619126","-0.15322891","9.911995","lay down","1"
"1133119478738524","3","-0.05746084","-0.1436521","9.940725","lay down","1"
"1133119498730711","3","-0.076614454","-0.1340753","9.921572","lay down","1"
"1133119518752586","3","-0.08619126","-0.15322891","9.921572","lay down","1"
"1133119538744774","3","-0.08619126","-0.1436521","9.921572","lay down","1"
"1133119558733836","3","-0.076614454","-0.15322891","9.911995","lay down","1"
"1133119578726024","3","-0.06703765","-0.1436521","9.931149","lay down","1"
"1133119598747899","3","-0.05746084","-0.1436521","9.921572","lay down","1"
"1133119618738524","3","-0.08619126","-0.1436521","9.911995","lay down","1"
"1133119638729149","3","-0.076614454","-0.15322891","9.950302","lay down","1"
