"Timestamp","Accuracy","Acceleration X","Acceleration Y","Acceleration Z","Label","Cycle"
"1132792514729149","3","-0.11492168","-0.11492168","9.883265","none","0"
"1132792534751024","3","-0.1340753","-0.12449849","9.959879","none","0"
"1132792554741649","3","-0.10534488","-0.12449849","9.921572","none","0"
"1132792574732274","3","-0.1340753","-0.1340753","9.950302","none","0"
"1132792594755711","3","-0.11492168","-0.11492168","9.902418","none","0"
"1132792614746336","3","-0.095768064","-0.15322891","9.950302","none","0"
"1132792634736961","3","-0.12449849","-0.1436521","9.902418","none","0"
"1132792654727586","3","-0.1436521","-0.12449849","9.931149","none","0"
"1132792674749461","3","-0.10534488","-0.12449849","9.940725","none","0"
"1132792694741649","3","-0.1340753","-0.1340753","9.911995","none","0"
"1132792714732274","3","-0.095768064","-0.11492168","9.931149","none","0"
"1132792734754149","3","-0.12449849","-0.1340753","9.883265","none","0"
"1132792754744774","3","-0.095768064","-0.1340753","9.940725","none","0"
"1132792774735399","3","-0.095768064","-0.11492168","9.911995","none","0"
"1132792794743211","3","-0.12449849","-0.12449849","9.921572","none","0"
"1132792814749461","3","-0.10534488","-0.1340753","9.950302","none","0"
"1132792834740086","3","-0.095768064","-0.11492168","9.940725","none","0"
"1132792854730711","3","-0.076614454","-0.1340753","9.921572","none","0"
"1132792874752586","3","-0.12449849","-0.1340753","9.902418","none","0"
"1132792894744774","3","-0.12449849","-0.1340753","9.921572","none","0"
"1132792914735399","3","-0.11492168","-0.1436521","9.911995","none","0"
"1132792934726024","3","-0.095768064","-0.11492168","9.921572","none","0"
"1132792954747899","3","-0.10534488","-0.1340753","9.921572","none","0"
"1132792974738524","3","-0.076614454","-0.1436521","9.902418","none","0"
"1132792994729149","3","-0.095768064","-0.1340753","9.911995","none","0"
"1132793014752586","3","-0.10534488","-0.11492168","9.921572","none","0"
"1132793034743211","3","-0.08619126","-0.1340753","9.940725","none","0"
"1132793054733836","3","-0.076614454","-0.12449849","9.921572","none","0"
"1132793074724461","3","-0.095768064","-0.1340753","9.902418","none","0"
"1132793094747899","3","-0.076614454","-0.12449849","9.921572","none","0"
"1132793114738524","3","-0.076614454","-0.1340753","9.940725","none","0"
"1132793134729149","3","-0.10534488","-0.1340753","9.911995","none","0"
"1132793154751024","3","-0.08619126","-0.10534488","9.921572","none","0"
"1132793174741649","3","-0.076614454","-0.1436521","9.902418","none","0"
"1132793194732274","3","-0.08619126","-0.12449849","9.902418","none","0"
"1132793214755711","3","-0.10534488","-0.11492168","9.959879","none","0"
"1132793234746336","3","-0.076614454","-0.11492168","9.902418","none","0"
"1132793254736961","3","-0.12449849","-0.11492168","9.940725","none","0"
"1132793274729149","3","-0.08619126","-0.1340753","9.873688","none","0"
"1132793294751024","3","-0.076614454","-0.10534488","9.940725","none","0"
"1132793314741649","3","-0.095768064","-0.1436521","9.902418","none","0"
"1132793334732274","3","-0.10534488","-0.12449849","9.940725","none","0"
"1132793354754149","3","-0.06703765","-0.12449849","9.921572","none","0"
"1132793374744774","3","-0.095768064","-0.1340753","9.931149","none","0"
"1132793394736961","3","-0.08619126","-0.10534488","9.931149","none","0"
"1132793414727586","3","-0.038307227","-0.1340753","9.911995","none","0"
"1132793434749461","3","-0.10534488","-0.1340753","9.902418","none","0"
"1132793454740086","3","-0.095768064","-0.12449849","9.988609","none","0"
"1132793474730711","3","-0.047884032","-0.1436521","9.883265","none","0"
"1132793494769774","3","-0.06703765","-0.12449849","9.940725","none","0"
"1132793514743211","3","-0.10534488","-0.12449849","9.921572","none","0"
"1132793534735399","3","-0.08619126","-0.11492168","9.940725","none","0"
"1132793554726024","3","-0.05746084","-0.12449849","9.921572","none","0"
"1132793574747899","3","-0.076614454","-0.12449849","9.921572","none","0"
"1132793594740086","3","-0.08619126","-0.12449849","9.902418","none","0"
"1132793614730711","3","-0.06703765","-0.1340753","9.921572","none","0"
"1132793634752586","3","-0.10534488","-0.1340753","9.969456","none","0"
"1132793654743211","3","-0.047884032","-0.15322891","9.854534","none","0"
"1132793674733836","3","-0.076614454","-0.12449849","9.959879","none","0"
"1132793694726024","3","-0.08619126","-0.12449849","9.902418","none","0"
"1132793714747899","3","-0.06703765","-0.1436521","9.921572","none","0"
"1132793734738524","3","-0.08619126","-0.11492168","9.959879","none","0"
"1132793754729149","3","-0.076614454","-0.1340753","9.892841","none","0"
"1132793774751024","3","-0.076614454","-0.10534488","9.921572","none","0"
"1132793794743211","3","-0.095768064","-0.10534488","9.911995","none","0"
"1132793814733836","3","-0.095768064","-0.12449849","9.931149","none","0"
"1132793834724461","3","-0.095768064","-0.11492168","9.950302","none","0"
"1132793854746336","3","-0.076614454","-0.1436521","9.902418","none","0"
"1132793874736961","3","-0.06703765","-0.1340753","9.950302","none","0"
"1132793894729149","3","-0.02873042","-0.12449849","9.883265","none","0"
"1132793914751024","3","-0.16280572","-0.11492168","9.959879","none","0"
"1132793934741649","3","-0.11492168","-0.1436521","10.103531","none","0"
"1132793954732274","3","0.019153614","-0.16280572","9.643845","none","0"
"1132793974754149","3","-0.16280572","-0.12449849","10.180145","none","0"
"1132793994746336","3","-0.076614454","-0.12449849","9.768343","none","0"
"1132794014736961","3","-0.047884032","-0.11492168","10.0269165","none","0"
"1132794034727586","3","-0.10534488","-0.11492168","9.873688","none","0"
"1132794054749461","3","-0.11492168","-0.10534488","9.959879","none","0"
"1132794074740086","3","-0.095768064","-0.095768064","9.902418","none","0"
"1132794094730711","3","-0.095768064","-0.1436521","9.921572","none","0"
"1132794114754149","3","-0.06703765","-0.11492168","9.864111","none","0"
"1132794134744774","3","-0.10534488","-0.12449849","9.9790325","none","0"
"1132794154735399","3","-0.08619126","-0.1340753","9.892841","none","0"
"1132794174726024","3","-0.047884032","-0.11492168","9.921572","none","0"
"1132794194765086","3","-0.095768064","-0.11492168","9.940725","none","0"
"1132794214738524","3","-0.076614454","-0.15322891","9.911995","none","0"
"1132794234730711","3","-0.05746084","-0.12449849","9.902418","none","0"
"1132794254752586","3","-0.08619126","-0.1436521","9.959879","none","0"
"1132794274743211","3","-0.076614454","-0.1340753","9.911995","none","0"
"1132794294733836","3","-0.08619126","-0.11492168","9.921572","none","0"
"1132794314726024","3","-0.08619126","-0.095768064","9.9790325","none","0"
"1132794334747899","3","-0.076614454","-0.1340753","9.864111","none","0"
"1132794354738524","3","-0.095768064","-0.10534488","9.988609","none","0"
"1132794374729149","3","-0.076614454","-0.1340753","9.883265","none","0"
"1132794394752586","3","-0.047884032","-0.15322891","9.911995","none","0"
"1132794414743211","3","-0.08619126","-0.11492168","9.950302","none","0"
"1132794434733836","3","-0.08619126","-0.1436521","9.940725","none","0"
"1132794454724461","3","-0.08619126","-0.11492168","9.931149","none","0"
"1132794474746336","3","-0.08619126","-0.12449849","9.921572","none","0"
"1132794494736961","3","-0.076614454","-0.12449849","9.911995","none","0"
"1132794514729149","3","-0.08619126","-0.11492168","9.950302","none","0"
"1132794534751024","3","-0.095768064","-0.1340753","9.911995","none","0"
"1132794554741649","3","-0.08619126","-0.12449849","9.921572","none","0"
"1132794574732274","3","-0.06703765","-0.095768064","9.921572","none","0"
"1132794594754149","3","-0.095768064","-0.1436521","9.921572","none","0"
"1132794614746336","3","-0.076614454","-0.11492168","9.902418","none","0"
"1132794634736961","3","-0.095768064","-0.1436521","9.950302","none","0"
"1132794654727586","3","-0.06703765","-0.11492168","9.892841","none","0"
"1132794674749461","3","-0.076614454","-0.1436521","9.931149","none","0"
"1132794694740086","3","-0.08619126","-0.10534488","9.931149","none","0"
"1132794714732274","3","-0.06703765","-0.11492168","9.931149","none","0"
"1132794734754149","3","-0.06703765","-0.11492168","9.921572","none","0"
"1132794754744774","3","-0.08619126","-0.11492168","9.911995","none","0"
"1132794774735399","3","-0.08619126","-0.12449849","9.911995","none","0"
"1132794794727586","3","-0.095768064","-0.1340753","9.921572","none","0"
"1132794814747899","3","-0.06703765","-0.12449849","9.902418","none","0"
"1132794834738524","3","-0.06703765","-0.12449849","9.911995","none","0"
"1132794854730711","3","-0.08619126","-0.1436521","9.931149","none","0"
"1132794874752586","3","-0.06703765","-0.1436521","9.911995","none","0"
"1132794894760399","3","-0.06703765","-0.10534488","9.921572","none","0"
"1132794914733836","3","-0.08619126","-0.1436521","9.931149","none","0"
"1132794934726024","3","-0.076614454","-0.12449849","9.911995","none","0"
"1132794954747899","3","-0.076614454","-0.12449849","9.911995","none","0"
"1132794974738524","3","-0.076614454","-0.15322891","9.940725","none","0"
"1132794994729149","3","-0.076614454","-0.12449849","9.902418","none","0"
"1132795014752586","3","-0.076614454","-0.12449849","9.902418","none","0"
"1132795034743211","3","-0.06703765","-0.12449849","9.921572","none","0"
"1132795054733836","3","-0.076614454","-0.1340753","9.911995","none","0"
"1132795074724461","3","-0.05746084","-0.12449849","9.931149","none","0"
"1132795094746336","3","-0.076614454","-0.1436521","9.921572","none","0"
"1132795114736961","3","-0.08619126","-0.1340753","9.911995","none","0"
"1132795134729149","3","-0.06703765","-0.1436521","9.911995","none","0"
"1132795154751024","3","-0.06703765","-0.1436521","9.921572","none","0"
"1132795174741649","3","-0.06703765","-0.12449849","9.931149","none","0"
"1132795194732274","3","-0.06703765","-0.16280572","9.921572","none","0"
"1132795214754149","3","-0.08619126","-0.12449849","9.921572","none","0"
"1132795234746336","3","-0.08619126","-0.1436521","9.931149","none","0"
"1132795254736961","3","-0.08619126","-0.1340753","9.902418","none","0"
"1132795274727586","3","-0.06703765","-0.11492168","9.950302","none","0"
"1132795294749461","3","-0.06703765","-0.1436521","9.892841","none","0"
"1132795314741649","3","-0.05746084","-0.12449849","9.921572","none","0"
"1132795334730711","3","-0.095768064","-0.1340753","9.921572","none","0"
"1132795354754149","3","-0.076614454","-0.1340753","9.921572","none","0"
"1132795374744774","3","-0.076614454","-0.1436521","9.911995","none","0"
"1132795394735399","3","-0.05746084","-0.11492168","9.921572","none","0"
"1132795414727586","3","-0.06703765","-0.1340753","9.902418","none","0"
"1132795434749461","3","-0.076614454","-0.12449849","9.931149","none","0"
"1132795454740086","3","-0.076614454","-0.11492168","9.921572","none","0"
"1132795474730711","3","-0.08619126","-0.12449849","9.959879","none","0"
"1132795494752586","3","-0.076614454","-0.1340753","9.911995","none","0"
"1132795514743211","3","-0.06703765","-0.1340753","9.931149","none","0"
"1132795534735399","3","-0.06703765","-0.12449849","9.892841","none","0"
"1132795554726024","3","-0.095768064","-0.1436521","9.940725","none","0"
"1132795574747899","3","-0.08619126","-0.1340753","9.931149","none","0"
"1132795594755711","3","-0.08619126","-0.12449849","9.921572","none","0"
"1132795614730711","3","-0.076614454","-0.1436521","9.921572","none","0"
"1132795634752586","3","-0.06703765","-0.11492168","9.931149","none","0"
"1132795654743211","3","-0.095768064","-0.11492168","9.931149","none","0"
"1132795674733836","3","-0.076614454","-0.1340753","9.911995","none","0"
"1132795694724461","3","-0.095768064","-0.12449849","9.940725","none","0"
"1132795714746336","3","-0.076614454","-0.1340753","9.911995","none","0"
"1132795734738524","3","-0.076614454","-0.10534488","9.950302","none","0"
"1132795754729149","3","-0.076614454","-0.1340753","9.892841","none","0"
"1132795774751024","3","-0.095768064","-0.1340753","9.950302","none","0"
"1132795794741649","3","-0.08619126","-0.15322891","9.892841","none","0"
"1132795814732274","3","-0.10534488","-0.1340753","9.940725","none","0"
"1132795834754149","3","-0.076614454","-0.1340753","9.902418","none","0"
"1132795854746336","3","-0.06703765","-0.1340753","9.940725","none","0"
"1132795874736961","3","-0.06703765","-0.12449849","9.911995","none","0"
"1132795894727586","3","-0.08619126","-0.1340753","9.931149","none","0"
"1132795914749461","3","-0.076614454","-0.1436521","9.931149","none","0"
"1132795934741649","3","-0.076614454","-0.12449849","9.921572","none","0"
"1132795954732274","3","-0.05746084","-0.1436521","9.921572","none","0"
"1132795974754149","3","-0.076614454","-0.12449849","9.921572","none","0"
"1132795994744774","3","-0.06703765","-0.1340753","9.902418","none","0"
"1132796014735399","3","-0.06703765","-0.12449849","9.940725","none","0"
"1132796034726024","3","-0.076614454","-0.12449849","9.892841","none","0"
"1132796054749461","3","-0.10534488","-0.1436521","9.969456","none","0"
"1132796074740086","3","-0.06703765","-0.1340753","9.892841","none","0"
"1132796094730711","3","-0.047884032","-0.1340753","9.931149","none","0"
"1132796114752586","3","-0.095768064","-0.12449849","9.931149","none","0"
"1132796134744774","3","-0.06703765","-0.1340753","9.911995","none","0"
"1132796154735399","3","-0.05746084","-0.11492168","9.902418","none","0"
"1132796174726024","3","-0.08619126","-0.1436521","9.931149","none","0"
"1132796194747899","3","-0.095768064","-0.1340753","9.911995","none","0"
"1132796214738524","3","-0.076614454","-0.11492168","9.931149","none","0"
"1132796234729149","3","-0.076614454","-0.12449849","9.911995","none","0"
"1132796254752586","3","-0.08619126","-0.1340753","9.950302","none","0"
"1132796274743211","3","-0.076614454","-0.1340753","9.911995","none","0"
"1132796294751024","3","-0.05746084","-0.12449849","9.902418","none","0"
"1132796314724461","3","-0.076614454","-0.1340753","9.921572","none","0"
"1132796334747899","3","-0.08619126","-0.11492168","9.911995","none","0"
"1132796354738524","3","-0.095768064","-0.12449849","9.940725","none","0"
"1132796374729149","3","-0.06703765","-0.11492168","9.911995","none","0"
"1132796394751024","3","-0.06703765","-0.12449849","9.931149","none","0"
"1132796414741649","3","-0.095768064","-0.1340753","9.931149","none","0"
"1132796434733836","3","-0.076614454","-0.12449849","9.911995","none","0"
"1132796454755711","3","-0.076614454","-0.1436521","9.902418","none","0"
"1132796474746336","3","-0.076614454","-0.1340753","9.931149","sit down","0"
"1132796494736961","3","-0.095768064","-0.11492168","9.940725","sit down","0"
"1132796514727586","3","-0.06703765","-0.12449849","9.921572","sit down","0"
"1132796534751024","3","-0.08619126","-0.12449849","9.940725","sit down","0"
"1132796554741649","3","-0.076614454","-0.12449849","9.940725","sit down","0"
"1132796574732274","3","-0.095768064","-0.12449849","9.940725","sit down","0"
"1132796594754149","3","-0.076614454","-0.12449849","9.921572","sit down","0"
"1132796614744774","3","-0.076614454","-0.1436521","9.931149","sit down","0"
"1132796634735399","3","-0.076614454","-0.12449849","9.911995","sit down","0"
"1132796654727586","3","-0.08619126","-0.10534488","9.911995","sit down","0"
"1132796674749461","3","-0.05746084","-0.17238252","10.0269165","sit down","0"
"1132796694740086","3","-0.076614454","-0.16280572","9.969456","sit down","0"
"1132796714730711","3","-0.08619126","-0.1340753","9.854534","sit down","0"
"1132796734754149","3","-0.076614454","-0.1436521","9.883265","sit down","0"
"1132796754744774","3","-0.076614454","-0.16280572","9.998186","sit down","0"
"1132796774735399","3","-0.08619126","-0.16280572","10.055647","sit down","0"
"1132796794726024","3","-0.08619126","-0.12449849","9.883265","sit down","0"
"1132796814747899","3","-0.08619126","-0.1340753","9.902418","sit down","0"
"1132796834738524","3","-0.076614454","-0.12449849","9.940725","sit down","0"
"1132796854730711","3","-0.076614454","-0.1340753","9.902418","sit down","0"
"1132796874752586","3","-0.076614454","-0.11492168","9.921572","sit down","0"
"1132796894743211","3","-0.08619126","-0.1340753","9.940725","sit down","0"
"1132796914733836","3","-0.076614454","-0.12449849","9.892841","sit down","0"
"1132796934726024","3","-0.06703765","-0.1436521","9.940725","sit down","0"
"1132796954747899","3","-0.095768064","-0.1340753","9.911995","sit down","0"
"1132796974738524","3","-0.076614454","-0.11492168","9.911995","sit down","0"
"1132796994744774","3","-0.08619126","-0.1340753","9.940725","sit down","0"
"1132797014751024","3","-0.076614454","-0.1340753","9.902418","sit down","0"
"1132797034741649","3","-0.06703765","-0.15322891","9.911995","sit down","0"
"1132797054733836","3","-0.08619126","-0.1340753","9.911995","sit down","0"
"1132797074724461","3","-0.08619126","-0.1340753","9.921572","sit down","0"
"1132797094746336","3","-0.095768064","-0.11492168","9.921572","sit down","0"
"1132797114736961","3","-0.06703765","-0.12449849","9.902418","sit down","0"
"1132797134729149","3","-0.076614454","-0.1340753","9.911995","sit down","0"
"1132797154751024","3","-0.08619126","-0.12449849","9.883265","sit down","0"
"1132797174741649","3","-0.095768064","-0.1340753","9.950302","sit down","0"
"1132797194732274","3","-0.08619126","-0.1436521","9.940725","sit down","0"
"1132797214754149","3","-0.076614454","-0.12449849","9.911995","sit down","0"
"1132797234746336","3","-0.076614454","-0.12449849","9.940725","sit down","0"
"1132797254735399","3","-0.076614454","-0.12449849","9.902418","sit down","0"
"1132797274727586","3","-0.076614454","-0.1436521","9.921572","sit down","0"
"1132797294749461","3","-0.05746084","-0.10534488","9.931149","sit down","0"
"1132797314740086","3","-0.06703765","-0.1340753","9.902418","sit down","0"
"1132797334730711","3","-0.095768064","-0.12449849","9.911995","sit down","0"
"1132797354754149","3","-0.08619126","-0.11492168","9.921572","sit down","0"
"1132797374744774","3","-0.095768064","-0.15322891","9.911995","sit down","0"
"1132797394735399","3","-0.047884032","-0.11492168","9.902418","sit down","0"
"1132797414726024","3","-0.1436521","-0.12449849","9.902418","sit down","0"
"1132797434747899","3","-0.10534488","-0.12449849","9.921572","sit down","0"
"1132797454740086","3","-0.08619126","-0.12449849","9.883265","sit down","0"
"1132797474730711","3","-0.19153613","-0.1340753","9.911995","sit down","0"
"1132797494752586","3","-0.019153614","-0.12449849","9.873688","sit down","0"
"1132797514743211","3","-0.06703765","-0.10534488","9.950302","sit down","0"
"1132797534733836","3","-0.24899697","-0.1340753","9.940725","sit down","0"
"1132797554726024","3","-0.076614454","-0.10534488","9.835381","sit down","0"
"1132797574747899","3","0.009576807","-0.1340753","9.998186","sit down","0"
"1132797594738524","3","-0.2681506","-0.15322891","9.931149","sit down","0"
"1132797614729149","3","0.047884032","-0.10534488","9.864111","sit down","0"
"1132797634751024","3","-0.06703765","-0.10534488","10.007763","sit down","0"
"1132797654741649","3","-0.08619126","-0.1436521","9.9790325","sit down","0"
"1132797674733836","3","0.009576807","-0.1436521","9.931149","sit down","0"
"1132797694741649","3","-0.076614454","-0.1436521","10.065224","sit down","0"
"1132797714746336","3","-0.038307227","-0.15322891","10.055647","sit down","0"
"1132797734736961","3","0.047884032","-0.1436521","9.959879","sit down","0"
"1132797754727586","3","0.0","-0.19153613","9.844957","sit down","0"
"1132797774751024","3","0.076614454","-0.18195933","9.835381","sit down","0"
"1132797794741649","3","0.0","-0.15322891","9.825804","sit down","0"
"1132797814732274","3","-0.019153614","-0.1340753","9.892841","sit down","0"
"1132797834754149","3","-0.047884032","-0.12449849","9.959879","sit down","0"
"1132797854746336","3","-0.05746084","-0.1340753","9.950302","sit down","0"
"1132797874736961","3","-0.076614454","-0.1436521","9.80665","sit down","0"
"1132797894727586","3","-0.11492168","-0.11492168","9.873688","sit down","0"
"1132797914749461","3","-0.06703765","-0.1340753","9.911995","sit down","0"
"1132797934741649","3","-0.06703765","-0.1436521","9.921572","sit down","0"
"1132797954732274","3","-0.19153613","-0.1340753","9.844957","sit down","0"
"1132797974754149","3","0.076614454","-0.17238252","9.959879","sit down","0"
"1132797994744774","3","-0.05746084","-0.1340753","9.892841","sit down","0"
"1132798014735399","3","-0.02873042","-0.1436521","9.902418","sit down","0"
"1132798034726024","3","-0.047884032","-0.1436521","9.883265","sit down","0"
"1132798054747899","3","0.0","-0.15322891","9.892841","sit down","0"
"1132798074740086","3","-0.009576807","-0.1340753","9.911995","sit down","0"
"1132798094730711","3","0.0","-0.16280572","9.921572","sit down","0"
"1132798114752586","3","0.0","-0.16280572","9.940725","sit down","0"
"1132798134744774","3","0.019153614","-0.15322891","9.950302","sit down","0"
"1132798154735399","3","0.009576807","-0.15322891","9.940725","sit down","0"
"1132798174726024","3","0.009576807","-0.1436521","9.959879","sit down","0"
"1132798194747899","3","0.02873042","-0.16280572","9.950302","sit down","0"
"1132798214738524","3","0.0","-0.15322891","9.940725","sit down","0"
"1132798234729149","3","0.02873042","-0.12449849","9.921572","sit down","0"
"1132798254751024","3","0.05746084","-0.15322891","9.969456","sit down","0"
"1132798274743211","3","0.009576807","-0.16280572","9.988609","sit down","0"
"1132798294733836","3","0.047884032","-0.17238252","9.911995","sit down","0"
"1132798314724461","3","0.009576807","-0.17238252","9.902418","sit down","0"
"1132798334746336","3","-0.02873042","-0.17238252","9.883265","sit down","0"
"1132798354738524","3","-0.08619126","-0.15322891","9.892841","sit down","0"
"1132798374729149","3","-0.05746084","-0.1340753","9.883265","sit down","0"
"1132798394766649","3","0.0","-0.17238252","9.835381","sit down","0"
"1132798414741649","3","-0.047884032","-0.1340753","9.931149","sit down","0"
"1132798434732274","3","-0.047884032","-0.1340753","9.892841","sit down","0"
"1132798454755711","3","-0.02873042","-0.1340753","9.883265","sit down","0"
"1132798474746336","3","-0.019153614","-0.17238252","9.902418","sit down","0"
"1132798494736961","3","0.009576807","-0.17238252","9.883265","sit down","0"
"1132798514727586","3","0.0","-0.1436521","9.892841","sit down","0"
"1132798534749461","3","0.019153614","-0.1436521","9.931149","sit down","0"
"1132798554741649","3","0.019153614","-0.1436521","9.921572","sit down","0"
"1132798574730711","3","0.047884032","-0.15322891","9.931149","sit down","0"
"1132798594754149","3","0.038307227","-0.17238252","9.931149","sit down","0"
"1132798614744774","3","0.009576807","-0.16280572","9.931149","sit down","0"
"1132798634735399","3","0.038307227","-0.15322891","9.931149","sit down","0"
"1132798654727586","3","0.05746084","-0.1436521","9.931149","sit down","0"
"1132798674749461","3","0.047884032","-0.16280572","9.921572","sit down","0"
"1132798694740086","3","0.038307227","-0.17238252","9.892841","sit down","0"
"1132798714730711","3","0.02873042","-0.16280572","9.931149","sit down","0"
"1132798734752586","3","0.02873042","-0.16280572","9.911995","sit down","0"
"1132798754744774","3","0.019153614","-0.16280572","9.911995","sit down","0"
"1132798774735399","3","0.009576807","-0.17238252","9.921572","sit down","0"
"1132798794726024","3","0.0","-0.18195933","9.902418","sit down","0"
"1132798814747899","3","-0.019153614","-0.17238252","9.902418","sit down","0"
"1132798834738524","3","0.0","-0.15322891","9.911995","sit down","0"
"1132798854730711","3","0.0","-0.15322891","9.911995","sit down","0"
"1132798874752586","3","0.009576807","-0.15322891","9.902418","sit down","0"
"1132798894743211","3","0.0","-0.15322891","9.902418","sit down","0"
"1132798914733836","3","0.009576807","-0.16280572","9.921572","sit down","0"
"1132798934726024","3","0.009576807","-0.15322891","9.921572","sit down","0"
"1132798954747899","3","0.019153614","-0.17238252","9.931149","sit down","0"
"1132798974738524","3","0.009576807","-0.15322891","9.931149","sit down","0"
"1132798994729149","3","0.02873042","-0.1436521","9.931149","sit down","0"
"1132799014751024","3","0.047884032","-0.18195933","9.911995","sit down","0"
"1132799034741649","3","0.02873042","-0.15322891","9.921572","sit down","0"
"1132799054732274","3","0.02873042","-0.15322891","9.940725","sit down","0"
"1132799074755711","3","0.02873042","-0.1340753","9.911995","sit down","0"
"1132799094761961","3","0.038307227","-0.17238252","9.902418","sit down","0"
"1132799114736961","3","0.019153614","-0.1340753","9.911995","sit down","0"
"1132799134727586","3","0.019153614","-0.1436521","9.931149","sit down","0"
"1132799154751024","3","0.009576807","-0.16280572","9.931149","sit down","0"
"1132799174741649","3","0.009576807","-0.1340753","9.911995","sit down","0"
"1132799194732274","3","0.019153614","-0.15322891","9.921572","sit down","0"
"1132799214754149","3","0.019153614","-0.17238252","9.921572","sit down","0"
"1132799234744774","3","0.0","-0.1436521","9.931149","sit down","0"
"1132799254735399","3","0.0","-0.15322891","9.921572","sit down","0"
"1132799274727586","3","0.0","-0.15322891","9.921572","sit down","0"
"1132799294749461","3","0.019153614","-0.16280572","9.921572","sit down","0"
"1132799314740086","3","0.02873042","-0.15322891","9.911995","sit down","0"
"1132799334730711","3","0.009576807","-0.17238252","9.931149","sit down","0"
"1132799354752586","3","0.019153614","-0.16280572","9.921572","sit down","0"
"1132799374744774","3","0.019153614","-0.1340753","9.921572","sit down","0"
"1132799394735399","3","0.009576807","-0.1436521","9.931149","sit down","0"
"1132799414726024","3","0.038307227","-0.17238252","9.931149","sit down","0"
"1132799434747899","3","0.0","-0.15322891","9.921572","sit down","0"
"1132799454738524","3","0.02873042","-0.15322891","9.931149","sit down","0"
"1132799474730711","3","0.019153614","-0.15322891","9.911995","sit down","0"
"1132799494752586","3","0.009576807","-0.16280572","9.931149","sit down","0"
"1132799514743211","3","0.019153614","-0.1340753","9.931149","sit down","0"
"1132799534733836","3","0.009576807","-0.15322891","9.921572","sit down","0"
"1132799554724461","3","0.019153614","-0.17238252","9.911995","sit down","0"
"1132799574747899","3","0.019153614","-0.15322891","9.921572","sit down","0"
"1132799594738524","3","0.009576807","-0.1436521","9.931149","sit down","0"
"1132799614729149","3","0.009576807","-0.15322891","9.940725","sit down","0"
"1132799634751024","3","0.019153614","-0.15322891","9.902418","sit down","0"
"1132799654743211","3","0.0","-0.1436521","9.911995","sit down","0"
"1132799674733836","3","0.009576807","-0.16280572","9.921572","sit down","0"
"1132799694724461","3","0.009576807","-0.16280572","9.940725","sit down","0"
"1132799714746336","3","0.009576807","-0.1436521","9.931149","sit down","0"
"1132799734736961","3","0.009576807","-0.1340753","9.921572","sit down","0"
"1132799754729149","3","0.02873042","-0.15322891","9.892841","sit down","0"
"1132799774751024","3","0.019153614","-0.16280572","9.931149","sit down","0"
"1132799794757274","3","0.009576807","-0.1340753","9.940725","sit down","0"
"1132799814732274","3","0.02873042","-0.1436521","9.921572","sit down","0"
"1132799834754149","3","0.02873042","-0.1340753","9.921572","sit down","0"
"1132799854746336","3","0.02873042","-0.1436521","9.940725","sit down","0"
"1132799874735399","3","0.019153614","-0.15322891","9.921572","sit down","0"
"1132799894727586","3","0.019153614","-0.15322891","9.911995","sit down","0"
"1132799914749461","3","0.0","-0.16280572","9.902418","sit down","0"
"1132799934740086","3","0.019153614","-0.1340753","9.911995","sit down","0"
"1132799954730711","3","0.02873042","-0.17238252","9.902418","sit down","0"
"1132799974754149","3","0.02873042","-0.1436521","9.921572","sit down","0"
"1132799994744774","3","0.009576807","-0.16280572","9.931149","sit down","0"
"1132800014735399","3","0.019153614","-0.16280572","9.911995","sit down","0"
"1132800034726024","3","0.009576807","-0.18195933","9.931149","sit down","0"
"1132800054749461","3","0.02873042","-0.1436521","9.911995","sit down","0"
"1132800074740086","3","0.019153614","-0.1436521","9.911995","sit down","0"
"1132800094730711","3","0.02873042","-0.16280572","9.921572","sit down","0"
"1132800114752586","3","0.009576807","-0.15322891","9.931149","sit down","0"
"1132800134743211","3","0.019153614","-0.15322891","9.911995","sit down","0"
"1132800154733836","3","0.009576807","-0.1436521","9.921572","sit down","0"
"1132800174724461","3","0.019153614","-0.15322891","9.931149","sit down","0"
"1132800194747899","3","0.02873042","-0.15322891","9.911995","sit down","0"
"1132800214738524","3","0.02873042","-0.1436521","9.921572","sit down","0"
"1132800234729149","3","0.009576807","-0.17238252","9.911995","sit down","0"
"1132800254751024","3","0.02873042","-0.15322891","9.911995","sit down","0"
"1132800274743211","3","0.019153614","-0.15322891","9.931149","sit down","0"
"1132800294733836","3","0.0","-0.17238252","9.902418","sit down","0"
"1132800314724461","3","0.02873042","-0.15322891","9.892841","sit down","0"
"1132800334746336","3","0.02873042","-0.15322891","9.911995","sit down","0"
"1132800354736961","3","0.019153614","-0.17238252","9.940725","sit down","0"
"1132800374729149","3","0.02873042","-0.15322891","9.921572","sit down","0"
"1132800394751024","3","0.02873042","-0.1436521","9.931149","sit down","0"
"1132800414741649","3","0.009576807","-0.1436521","9.911995","sit down","0"
"1132800434732274","3","0.019153614","-0.16280572","9.931149","sit down","0"
"1132800454754149","3","0.009576807","-0.16280572","9.921572","sit down","0"
"1132800474746336","3","0.0","-0.15322891","9.911995","lay down","0"
"1132800494752586","3","0.019153614","-0.1340753","9.931149","lay down","0"
"1132800514727586","3","0.009576807","-0.16280572","9.931149","lay down","0"
"1132800534749461","3","0.009576807","-0.15322891","9.911995","lay down","0"
"1132800554740086","3","0.019153614","-0.17238252","9.921572","lay down","0"
"1132800574730711","3","0.02873042","-0.1436521","9.911995","lay down","0"
"1132800594754149","3","0.0","-0.16280572","9.883265","lay down","0"
"1132800614744774","3","0.0","-0.17238252","9.883265","lay down","0"
"1132800634735399","3","0.02873042","-0.18195933","10.01734","lay down","0"
"1132800654726024","3","0.02873042","-0.16280572","9.911995","lay down","0"
"1132800674749461","3","0.009576807","-0.19153613","10.0269165","lay down","0"
"1132800694740086","3","0.009576807","-0.19153613","9.998186","lay down","0"
"1132800714730711","3","0.0","-0.16280572","9.854534","lay down","0"
"1132800734752586","3","0.019153614","-0.16280572","9.892841","lay down","0"
"1132800754744774","3","0.009576807","-0.15322891","9.931149","lay down","0"
"1132800774733836","3","0.0","-0.15322891","9.883265","lay down","0"
"1132800794726024","3","0.02873042","-0.19153613","9.921572","lay down","0"
"1132800814747899","3","0.019153614","-0.15322891","9.931149","lay down","0"
"1132800834738524","3","0.047884032","-0.16280572","9.911995","lay down","0"
"1132800854729149","3","0.02873042","-0.17238252","9.921572","lay down","0"
"1132800874752586","3","0.009576807","-0.1436521","9.883265","lay down","0"
"1132800894743211","3","0.019153614","-0.1436521","9.931149","lay down","0"
"1132800914733836","3","0.047884032","-0.17238252","9.931149","lay down","0"
"1132800934724461","3","0.0","-0.1340753","9.892841","lay down","0"
"1132800954746336","3","0.009576807","-0.16280572","9.921572","lay down","0"
"1132800974736961","3","0.02873042","-0.15322891","9.921572","lay down","0"
"1132800994729149","3","0.038307227","-0.16280572","9.911995","lay down","0"
"1132801014751024","3","0.009576807","-0.15322891","9.921572","lay down","0"
"1132801034741649","3","0.038307227","-0.1436521","9.911995","lay down","0"
"1132801054732274","3","0.009576807","-0.1436521","9.911995","lay down","0"
"1132801074754149","3","0.02873042","-0.18195933","9.921572","lay down","0"
"1132801094746336","3","0.02873042","-0.1436521","9.931149","lay down","0"
"1132801114736961","3","0.009576807","-0.11492168","9.883265","lay down","0"
"1132801134727586","3","0.038307227","-0.1340753","9.950302","lay down","0"
"1132801154749461","3","0.019153614","-0.1340753","9.902418","lay down","0"
"1132801174741649","3","0.0","-0.1340753","9.902418","lay down","0"
"1132801194747899","3","0.02873042","-0.15322891","9.950302","lay down","0"
"1132801214754149","3","0.047884032","-0.10534488","9.959879","lay down","0"
"1132801234744774","3","0.08619126","-0.12449849","9.950302","lay down","0"
"1132801254735399","3","0.08619126","-0.15322891","9.969456","lay down","0"
"1132801274727586","3","0.019153614","-0.11492168","9.950302","lay down","0"
"1132801294749461","3","0.0","-0.1340753","9.873688","lay down","0"
"1132801314740086","3","0.076614454","-0.1340753","9.911995","lay down","0"
"1132801334730711","3","0.05746084","-0.15322891","9.902418","lay down","0"
"1132801354754149","3","0.0","-0.15322891","9.921572","lay down","0"
"1132801374744774","3","0.0","-0.11492168","9.873688","lay down","0"
"1132801394735399","3","0.08619126","-0.10534488","9.902418","lay down","0"
"1132801414726024","3","0.18195933","-0.1340753","9.9790325","lay down","0"
"1132801434747899","3","0.17238252","-0.1436521","10.01734","lay down","0"
"1132801454738524","3","0.15322891","-0.15322891","10.01734","lay down","0"
"1132801474730711","3","0.1340753","-0.1436521","9.969456","lay down","0"
"1132801494752586","3","0.06703765","-0.1436521","9.883265","lay down","0"
"1132801514743211","3","0.047884032","-0.16280572","9.902418","lay down","0"
"1132801534733836","3","-0.10534488","-0.15322891","9.864111","lay down","0"
"1132801554724461","3","-0.047884032","-0.16280572","9.835381","lay down","0"
"1132801574746336","3","-0.009576807","-0.16280572","9.816227","lay down","0"
"1132801594738524","3","0.0","-0.12449849","9.921572","lay down","0"
"1132801614729149","3","0.0","-0.047884032","9.892841","lay down","0"
"1132801634751024","3","0.047884032","-0.095768064","9.844957","lay down","0"
"1132801654741649","3","0.038307227","-0.1436521","9.883265","lay down","0"
"1132801674733836","3","0.1436521","-0.11492168","9.902418","lay down","0"
"1132801694755711","3","0.16280572","-0.10534488","9.950302","lay down","0"
"1132801714746336","3","0.15322891","-0.08619126","9.959879","lay down","0"
"1132801734736961","3","0.08619126","-0.08619126","9.911995","lay down","0"
"1132801754727586","3","0.05746084","-0.06703765","9.911995","lay down","0"
"1132801774751024","3","0.08619126","-0.076614454","9.931149","lay down","0"
"1132801794741649","3","0.06703765","-0.06703765","9.950302","lay down","0"
"1132801814732274","3","0.1436521","-0.076614454","9.931149","lay down","0"
"1132801834754149","3","0.2777274","-0.12449849","9.959879","lay down","0"
"1132801854746336","3","0.2873042","-0.095768064","10.04607","lay down","0"
"1132801874735399","3","0.2873042","-0.009576807","9.988609","lay down","0"
"1132801894743211","3","0.24899697","-0.047884032","9.892841","lay down","0"
"1132801914749461","3","0.11492168","-0.08619126","9.892841","lay down","0"
"1132801934740086","3","0.02873042","-0.08619126","9.835381","lay down","0"
"1132801954730711","3","-0.21068975","-0.17238252","9.797073","lay down","0"
"1132801974752586","3","-0.41180268","-0.21068975","9.787497","lay down","0"
"1132801994744774","3","-0.32561144","-0.11492168","9.691729","lay down","0"
"1132802014735399","3","0.10534488","-0.11492168","9.902418","lay down","0"
"1132802034726024","3","0.10534488","-0.12449849","9.931149","lay down","0"
"1132802054747899","3","-0.10534488","-0.009576807","9.940725","lay down","0"
"1132802074738524","3","0.05746084","-0.22984336","9.921572","lay down","0"
"1132802094730711","3","0.19153613","-0.19153613","9.816227","lay down","0"
"1132802114752586","3","0.63206923","-0.15322891","9.9790325","lay down","0"
"1132802134743211","3","-0.30645782","-0.2873042","9.902418","lay down","0"
"1132802154733836","3","-0.22026655","-0.038307227","9.739613","lay down","0"
"1132802174724461","3","-0.2777274","-0.22984336","9.691729","lay down","0"
"1132802194747899","3","-0.019153614","-0.10534488","9.825804","lay down","0"
"1132802214736961","3","0.12449849","-0.019153614","9.998186","lay down","0"
"1132802234729149","3","0.1436521","-0.076614454","10.228029","lay down","0"
"1132802254751024","3","0.29688102","-0.22026655","9.931149","lay down","0"
"1132802274743211","3","0.18195933","-0.019153614","10.0269165","lay down","0"
"1132802294732274","3","0.08619126","-0.1340753","9.9790325","lay down","0"
"1132802314755711","3","0.11492168","-0.08619126","9.892841","lay down","0"
"1132802334746336","3","0.16280572","-0.06703765","9.921572","lay down","0"
"1132802354736961","3","0.009576807","-0.095768064","9.950302","lay down","0"
"1132802374727586","3","0.0","-0.05746084","9.77792","lay down","0"
"1132802394749461","3","0.0","-0.06703765","9.749189","lay down","0"
"1132802414741649","3","-0.06703765","0.15322891","9.864111","lay down","0"
"1132802434732274","3","-0.095768064","0.17238252","9.883265","lay down","0"
"1132802454754149","3","-0.29688102","-0.038307227","9.816227","lay down","0"
"1132802474746336","3","-0.2873042","-0.095768064","9.749189","lay down","0"
"1132802494736961","3","-0.32561144","-0.15322891","9.883265","lay down","0"
"1132802514727586","3","-0.39264908","-0.11492168","9.844957","lay down","0"
"1132802534749461","3","-0.009576807","-0.05746084","9.797073","lay down","0"
"1132802554740086","3","0.12449849","-0.11492168","9.940725","lay down","0"
"1132802574730711","3","0.20111294","-0.22026655","10.0748005","lay down","0"
"1132802594769774","3","0.11492168","-0.12449849","10.151415","lay down","0"
"1132802614744774","3","0.24899697","-0.047884032","10.0748005","lay down","0"
"1132802634735399","3","-0.05746084","-0.10534488","10.141838","lay down","0"
"1132802654726024","3","-0.16280572","-0.076614454","9.931149","lay down","0"
"1132802674747899","3","-0.08619126","-0.019153614","9.864111","lay down","0"
"1132802694738524","3","-0.18195933","-0.1340753","10.01734","lay down","0"
"1132802714730711","3","-0.22984336","-0.11492168","9.854534","lay down","0"
"1132802734752586","3","-0.21068975","-0.10534488","9.749189","lay down","0"
"1132802754743211","3","0.076614454","-0.05746084","9.873688","lay down","0"
"1132802774733836","3","0.1436521","-0.095768064","10.01734","lay down","0"
"1132802794726024","3","0.019153614","-0.095768064","9.940725","lay down","0"
"1132802814747899","3","0.05746084","-0.10534488","9.9790325","lay down","0"
"1132802834738524","3","0.047884032","-0.10534488","9.969456","lay down","0"
"1132802854729149","3","0.0","-0.08619126","9.959879","lay down","0"
"1132802874752586","3","-0.009576807","-0.06703765","9.931149","lay down","0"
"1132802894743211","3","-0.047884032","-0.076614454","9.873688","lay down","0"
"1132802914733836","3","-0.1340753","-0.06703765","9.864111","lay down","0"
"1132802934724461","3","-0.17238252","-0.095768064","9.883265","lay down","0"
"1132802954746336","3","-0.16280572","-0.10534488","9.892841","lay down","0"
"1132802974736961","3","-0.15322891","-0.095768064","9.921572","lay down","0"
"1132802994727586","3","-0.10534488","-0.095768064","9.911995","lay down","0"
"1132803014751024","3","-0.02873042","-0.08619126","9.883265","lay down","0"
"1132803034741649","3","0.0","-0.08619126","9.911995","lay down","0"
"1132803054732274","3","0.02873042","-0.08619126","9.911995","lay down","0"
"1132803074754149","3","0.038307227","-0.076614454","9.931149","lay down","0"
"1132803094746336","3","0.038307227","-0.06703765","9.883265","lay down","0"
"1132803114736961","3","0.009576807","-0.038307227","9.883265","lay down","0"
"1132803134727586","3","0.0","-0.06703765","9.902418","lay down","0"
"1132803154749461","3","-0.009576807","-0.038307227","9.892841","lay down","0"
"1132803174740086","3","-0.02873042","-0.038307227","9.892841","lay down","0"
"1132803194730711","3","-0.009576807","-0.076614454","9.902418","lay down","0"
"1132803214754149","3","-0.02873042","-0.06703765","9.883265","lay down","0"
"1132803234744774","3","-0.038307227","-0.08619126","9.911995","lay down","0"
"1132803254735399","3","-0.038307227","-0.095768064","9.911995","lay down","0"
"1132803274726024","3","-0.02873042","-0.08619126","9.902418","lay down","0"
"1132803294765086","3","0.0","-0.06703765","9.921572","lay down","0"
"1132803314740086","3","0.0","-0.08619126","9.931149","lay down","0"
"1132803334730711","3","0.0","-0.095768064","9.931149","lay down","0"
"1132803354752586","3","0.019153614","-0.095768064","9.921572","lay down","0"
"1132803374743211","3","0.019153614","-0.06703765","9.921572","lay down","0"
"1132803394733836","3","0.019153614","-0.076614454","9.911995","lay down","0"
"1132803414726024","3","0.0","-0.076614454","9.931149","lay down","0"
"1132803434747899","3","0.0","-0.076614454","9.911995","lay down","0"
"1132803454738524","3","0.0","-0.08619126","9.911995","lay down","0"
"1132803474729149","3","-0.009576807","-0.076614454","9.902418","lay down","0"
"1132803494752586","3","-0.019153614","-0.08619126","9.921572","lay down","0"
"1132803514743211","3","-0.009576807","-0.08619126","9.902418","lay down","0"
"1132803534733836","3","-0.038307227","-0.076614454","9.931149","lay down","0"
"1132803554724461","3","-0.02873042","-0.06703765","9.911995","lay down","0"
"1132803574746336","3","-0.038307227","-0.076614454","9.911995","lay down","0"
"1132803594736961","3","-0.02873042","-0.076614454","9.892841","lay down","0"
"1132803614727586","3","-0.047884032","-0.076614454","9.892841","lay down","0"
"1132803634751024","3","-0.019153614","-0.05746084","9.892841","lay down","0"
"1132803654741649","3","-0.009576807","-0.08619126","9.902418","lay down","0"
"1132803674732274","3","-0.009576807","-0.076614454","9.892841","lay down","0"
"1132803694755711","3","0.0","-0.08619126","9.911995","lay down","0"
"1132803714746336","3","-0.009576807","-0.076614454","9.892841","lay down","0"
"1132803734736961","3","-0.009576807","-0.076614454","9.892841","lay down","0"
"1132803754727586","3","0.0","-0.06703765","9.921572","lay down","0"
"1132803774751024","3","0.0","-0.076614454","9.902418","lay down","0"
"1132803794740086","3","-0.02873042","-0.06703765","9.892841","lay down","0"
"1132803814732274","3","-0.009576807","-0.095768064","9.921572","lay down","0"
"1132803834754149","3","-0.009576807","-0.06703765","9.931149","lay down","0"
"1132803854744774","3","-0.009576807","-0.095768064","9.921572","lay down","0"
"1132803874735399","3","-0.009576807","-0.05746084","9.931149","lay down","0"
"1132803894727586","3","-0.019153614","-0.076614454","9.921572","lay down","0"
"1132803914749461","3","0.0","-0.08619126","9.921572","lay down","0"
"1132803934740086","3","0.0","-0.076614454","9.883265","lay down","0"
"1132803954730711","3","-0.019153614","-0.06703765","9.921572","lay down","0"
"1132803974752586","3","-0.019153614","-0.08619126","9.931149","lay down","0"
"1132803994760399","3","-0.009576807","-0.06703765","9.911995","lay down","0"
"1132804014735399","3","-0.009576807","-0.095768064","9.902418","lay down","0"
"1132804034726024","3","-0.019153614","-0.076614454","9.892841","lay down","0"
"1132804054747899","3","-0.009576807","-0.08619126","9.902418","lay down","0"
"1132804074738524","3","-0.009576807","-0.076614454","9.902418","lay down","0"
"1132804094729149","3","-0.009576807","-0.095768064","9.902418","lay down","0"
"1132804114752586","3","-0.019153614","-0.076614454","9.911995","lay down","0"
"1132804134743211","3","0.0","-0.08619126","9.883265","lay down","0"
"1132804154733836","3","0.0","-0.08619126","9.902418","lay down","0"
"1132804174724461","3","-0.009576807","-0.076614454","9.911995","lay down","0"
"1132804194747899","3","-0.009576807","-0.05746084","9.902418","lay down","0"
"1132804214736961","3","0.0","-0.08619126","9.892841","lay down","0"
"1132804234729149","3","-0.019153614","-0.08619126","9.921572","lay down","0"
"1132804254751024","3","0.0","-0.076614454","9.921572","lay down","0"
"1132804274741649","3","-0.009576807","-0.076614454","9.911995","lay down","0"
"1132804294732274","3","0.0","-0.08619126","9.902418","lay down","0"
"1132804314755711","3","-0.009576807","-0.076614454","9.892841","lay down","0"
"1132804334746336","3","-0.019153614","-0.08619126","9.911995","lay down","0"
"1132804354735399","3","-0.009576807","-0.08619126","9.902418","lay down","0"
"1132804374727586","3","-0.019153614","-0.08619126","9.931149","lay down","0"
"1132804394749461","3","-0.009576807","-0.05746084","9.892841","lay down","0"
"1132804414740086","3","0.0","-0.076614454","9.902418","lay down","0"
"1132804434732274","3","-0.009576807","-0.08619126","9.902418","lay down","0"
"1132804454754149","3","0.0","-0.095768064","9.902418","lay down","0"
"1132804474744774","3","-0.019153614","-0.076614454","9.902418","sit up","0"
"1132804494735399","3","-0.009576807","-0.08619126","9.892841","sit up","0"
"1132804514726024","3","-0.009576807","-0.06703765","9.883265","sit up","0"
"1132804534749461","3","-0.019153614","-0.06703765","9.921572","sit up","0"
"1132804554740086","3","-0.02873042","-0.095768064","9.892841","sit up","0"
"1132804574730711","3","-0.02873042","-0.076614454","9.902418","sit up","0"
"1132804594754149","3","-0.019153614","-0.076614454","9.911995","sit up","0"
"1132804614744774","3","0.0","-0.095768064","9.959879","sit up","0"
"1132804634735399","3","-0.019153614","-0.08619126","9.911995","sit up","0"
"1132804654726024","3","-0.019153614","-0.076614454","9.854534","sit up","0"
"1132804674747899","3","0.0","-0.10534488","9.959879","sit up","0"
"1132804694755711","3","0.0","-0.11492168","10.04607","sit up","0"
"1132804714730711","3","-0.019153614","-0.10534488","9.921572","sit up","0"
"1132804734752586","3","-0.019153614","-0.12449849","9.969456","sit up","0"
"1132804754743211","3","-0.009576807","-0.06703765","9.864111","sit up","0"
"1132804774733836","3","-0.019153614","-0.095768064","9.883265","sit up","0"
"1132804794724461","3","-0.038307227","-0.06703765","9.902418","sit up","0"
"1132804814746336","3","0.0","-0.076614454","9.921572","sit up","0"
"1132804834738524","3","0.095768064","-0.12449849","9.950302","sit up","0"
"1132804854729149","3","-0.05746084","-0.15322891","9.921572","sit up","0"
"1132804874751024","3","-0.076614454","-0.05746084","9.835381","sit up","0"
"1132804894741649","3","-0.31603462","-0.06703765","9.950302","sit up","0"
"1132804914732274","3","-0.02873042","-0.1436521","9.787497","sit up","0"
"1132804934755711","3","0.21068975","-0.08619126","10.0269165","sit up","0"
"1132804954746336","3","0.06703765","-0.047884032","9.988609","sit up","0"
"1132804974736961","3","-0.047884032","-0.11492168","9.911995","sit up","0"
"1132804994729149","3","0.038307227","-0.095768064","9.902418","sit up","0"
"1132805014749461","3","0.047884032","-0.11492168","9.959879","sit up","0"
"1132805034741649","3","0.02873042","-0.06703765","9.883265","sit up","0"
"1132805054732274","3","0.0","-0.10534488","9.931149","sit up","0"
"1132805074754149","3","0.009576807","-0.08619126","9.959879","sit up","0"
"1132805094744774","3","0.05746084","-0.06703765","9.911995","sit up","0"
"1132805114736961","3","0.076614454","-0.06703765","9.911995","sit up","0"
"1132805134727586","3","0.038307227","-0.05746084","9.940725","sit up","0"
"1132805154749461","3","0.11492168","-0.047884032","9.911995","sit up","0"
"1132805174740086","3","0.21068975","-0.05746084","9.911995","sit up","0"
"1132805194730711","3","0.4213795","-0.009576807","9.988609","sit up","0"
"1132805214752586","3","0.29688102","0.009576807","9.969456","sit up","0"
"1132805234744774","3","0.11492168","0.009576807","9.873688","sit up","0"
"1132805254735399","3","-0.06703765","-0.019153614","9.797073","sit up","0"
"1132805274726024","3","-0.29688102","-0.11492168","9.797073","sit up","0"
"1132805294747899","3","-0.21068975","-0.08619126","9.873688","sit up","0"
"1132805314738524","3","-0.1340753","-0.10534488","9.883265","sit up","0"
"1132805334730711","3","-0.15322891","-0.18195933","9.902418","sit up","0"
"1132805354752586","3","-0.17238252","-0.16280572","9.844957","sit up","0"
"1132805374743211","3","-0.46926352","-0.19153613","9.864111","sit up","0"
"1132805394751024","3","-0.24899697","-0.1340753","9.825804","sit up","0"
"1132805414724461","3","-0.08619126","-0.10534488","9.883265","sit up","0"
"1132805434747899","3","0.12449849","-0.1340753","9.883265","sit up","0"
"1132805454738524","3","0.0","-0.12449849","9.931149","sit up","0"
"1132805474729149","3","-0.2681506","-0.1340753","9.921572","sit up","0"
"1132805494751024","3","0.038307227","-0.12449849","9.835381","sit up","0"
"1132805514743211","3","0.095768064","-0.08619126","9.921572","sit up","0"
"1132805534732274","3","-0.05746084","-0.10534488","10.007763","sit up","0"
"1132805554724461","3","-0.009576807","-0.095768064","9.864111","sit up","0"
"1132805574746336","3","0.05746084","-0.095768064","9.892841","sit up","0"
"1132805594736961","3","-0.038307227","-0.05746084","9.911995","sit up","0"
"1132805614729149","3","-0.047884032","-0.095768064","9.902418","sit up","0"
"1132805634751024","3","0.047884032","-0.15322891","9.873688","sit up","0"
"1132805654741649","3","0.05746084","-0.06703765","9.883265","sit up","0"
"1132805674732274","3","0.08619126","-0.06703765","9.921572","sit up","0"
"1132805694754149","3","0.21068975","-0.11492168","9.969456","sit up","0"
"1132805714744774","3","0.12449849","-0.10534488","10.007763","sit up","0"
"1132805734735399","3","0.10534488","-0.095768064","9.940725","sit up","0"
"1132805754727586","3","0.08619126","-0.10534488","9.911995","sit up","0"
"1132805774749461","3","0.11492168","-0.12449849","9.892841","sit up","0"
"1132805794740086","3","0.08619126","-0.1436521","9.902418","sit up","0"
"1132805814730711","3","0.08619126","-0.12449849","9.902418","sit up","0"
"1132805834754149","3","0.12449849","-0.095768064","9.931149","sit up","0"
"1132805854744774","3","0.038307227","-0.1340753","9.892841","sit up","0"
"1132805874735399","3","0.1436521","-0.1340753","9.892841","sit up","0"
"1132805894726024","3","0.16280572","-0.15322891","9.950302","sit up","0"
"1132805914747899","3","0.11492168","-0.12449849","9.931149","sit up","0"
"1132805934738524","3","0.08619126","-0.1340753","9.940725","sit up","0"
"1132805954730711","3","0.095768064","-0.12449849","9.892841","sit up","0"
"1132805974752586","3","0.02873042","-0.12449849","9.931149","sit up","0"
"1132805994743211","3","0.22984336","-0.1436521","9.940725","sit up","0"
"1132806014733836","3","0.05746084","-0.1436521","9.988609","sit up","0"
"1132806034726024","3","0.038307227","-0.1340753","9.892841","sit up","0"
"1132806054747899","3","0.12449849","-0.11492168","9.892841","sit up","0"
"1132806074738524","3","0.019153614","-0.17238252","9.864111","sit up","0"
"1132806094746336","3","0.0","-0.17238252","9.854534","sit up","0"
"1132806114751024","3","-0.009576807","-0.17238252","9.873688","sit up","0"
"1132806134743211","3","0.02873042","-0.15322891","9.816227","sit up","0"
"1132806154733836","3","0.047884032","-0.17238252","9.844957","sit up","0"
"1132806174724461","3","0.08619126","-0.17238252","9.873688","sit up","0"
"1132806194746336","3","0.15322891","-0.22026655","9.911995","sit up","0"
"1132806214736961","3","0.1436521","-0.16280572","9.940725","sit up","0"
"1132806234729149","3","0.15322891","-0.16280572","9.854534","sit up","0"
"1132806254751024","3","0.16280572","-0.21068975","9.921572","sit up","0"
"1132806274741649","3","0.1436521","-0.22026655","9.9790325","sit up","0"
"1132806294732274","3","0.18195933","-0.17238252","9.950302","sit up","0"
"1132806314754149","3","0.21068975","-0.19153613","9.9790325","sit up","0"
"1132806334744774","3","0.17238252","-0.15322891","9.940725","sit up","0"
"1132806354735399","3","0.1436521","-0.17238252","9.911995","sit up","0"
"1132806374727586","3","0.15322891","-0.18195933","9.921572","sit up","0"
"1132806394749461","3","0.18195933","-0.22026655","9.950302","sit up","0"
"1132806414740086","3","0.038307227","-0.16280572","9.921572","sit up","0"
"1132806434732274","3","0.02873042","-0.19153613","9.854534","sit up","0"
"1132806454754149","3","0.05746084","-0.1436521","9.825804","sit up","0"
"1132806474744774","3","0.08619126","-0.17238252","9.892841","sit up","0"
"1132806494735399","3","0.12449849","-0.19153613","9.940725","sit up","0"
"1132806514726024","3","0.095768064","-0.21068975","9.864111","sit up","0"
"1132806534749461","3","0.10534488","-0.21068975","9.911995","sit up","0"
"1132806554740086","3","0.11492168","-0.22026655","9.883265","sit up","0"
"1132806574730711","3","0.1340753","-0.22984336","9.921572","sit up","0"
"1132806594752586","3","0.1340753","-0.22984336","9.911995","sit up","0"
"1132806614743211","3","0.1340753","-0.21068975","9.931149","sit up","0"
"1132806634735399","3","0.12449849","-0.21068975","9.902418","sit up","0"
"1132806654726024","3","0.10534488","-0.22026655","9.911995","sit up","0"
"1132806674747899","3","0.11492168","-0.22026655","9.931149","sit up","0"
"1132806694738524","3","0.11492168","-0.22984336","9.892841","sit up","0"
"1132806714729149","3","0.11492168","-0.22026655","9.959879","sit up","0"
"1132806734751024","3","0.11492168","-0.21068975","9.911995","sit up","0"
"1132806754743211","3","0.1340753","-0.22026655","9.921572","sit up","0"
"1132806774733836","3","0.08619126","-0.22984336","9.902418","sit up","0"
"1132806794740086","3","0.11492168","-0.22984336","9.883265","sit up","0"
"1132806814746336","3","0.08619126","-0.20111294","9.902418","sit up","0"
"1132806834736961","3","0.11492168","-0.20111294","9.873688","sit up","0"
"1132806854729149","3","0.08619126","-0.19153613","9.902418","sit up","0"
"1132806874751024","3","0.095768064","-0.17238252","9.902418","sit up","0"
"1132806894741649","3","0.12449849","-0.21068975","9.921572","sit up","0"
"1132806914732274","3","0.12449849","-0.22026655","9.902418","sit up","0"
"1132806934754149","3","0.12449849","-0.21068975","9.892841","sit up","0"
"1132806954746336","3","0.10534488","-0.20111294","9.959879","sit up","0"
"1132806974736961","3","0.11492168","-0.21068975","9.835381","sit up","0"
"1132806994727586","3","0.047884032","-0.22026655","9.950302","sit up","0"
"1132807014749461","3","0.11492168","-0.20111294","9.950302","sit up","0"
"1132807034741649","3","0.1436521","-0.22026655","9.835381","sit up","0"
"1132807054730711","3","0.12449849","-0.22984336","9.950302","sit up","0"
"1132807074754149","3","0.095768064","-0.22026655","9.959879","sit up","0"
"1132807094744774","3","0.1340753","-0.20111294","9.873688","sit up","0"
"1132807114735399","3","0.08619126","-0.20111294","9.921572","sit up","0"
"1132807134726024","3","0.08619126","-0.22984336","9.911995","sit up","0"
"1132807154749461","3","0.095768064","-0.22984336","9.873688","sit up","0"
"1132807174740086","3","0.10534488","-0.20111294","9.921572","sit up","0"
"1132807194730711","3","0.11492168","-0.19153613","9.864111","sit up","0"
"1132807214752586","3","0.076614454","-0.20111294","9.940725","sit up","0"
"1132807234744774","3","0.11492168","-0.20111294","9.892841","sit up","0"
"1132807254735399","3","0.10534488","-0.21068975","9.921572","sit up","0"
"1132807274726024","3","0.05746084","-0.21068975","9.931149","sit up","0"
"1132807294747899","3","0.095768064","-0.20111294","9.854534","sit up","0"
"1132807314738524","3","0.095768064","-0.21068975","9.902418","sit up","0"
"1132807334729149","3","0.12449849","-0.23942018","9.902418","sit up","0"
"1132807354752586","3","0.1340753","-0.23942018","9.911995","sit up","0"
"1132807374743211","3","0.11492168","-0.20111294","9.911995","sit up","0"
"1132807394733836","3","0.10534488","-0.20111294","9.969456","sit up","0"
"1132807414726024","3","0.1436521","-0.19153613","9.825804","sit up","0"
"1132807434747899","3","0.08619126","-0.22026655","10.01734","sit up","0"
"1132807454738524","3","0.095768064","-0.20111294","9.854534","sit up","0"
"1132807474729149","3","0.12449849","-0.22984336","9.921572","sit up","0"
"1132807494766649","3","0.095768064","-0.19153613","9.921572","sit up","0"
"1132807514741649","3","0.10534488","-0.20111294","9.911995","sit up","0"
"1132807534732274","3","0.10534488","-0.21068975","9.921572","sit up","0"
"1132807554754149","3","0.11492168","-0.22026655","9.873688","sit up","0"
"1132807574746336","3","0.12449849","-0.22026655","9.931149","sit up","0"
"1132807594736961","3","0.10534488","-0.22026655","9.892841","sit up","0"
"1132807614727586","3","0.095768064","-0.21068975","9.921572","sit up","0"
"1132807634751024","3","0.10534488","-0.21068975","9.892841","sit up","0"
"1132807654741649","3","0.095768064","-0.22026655","9.892841","sit up","0"
"1132807674732274","3","0.10534488","-0.22026655","9.931149","sit up","0"
"1132807694754149","3","0.10534488","-0.20111294","9.911995","sit up","0"
"1132807714744774","3","0.11492168","-0.22026655","9.902418","sit up","0"
"1132807734735399","3","0.095768064","-0.19153613","9.921572","sit up","0"
"1132807754727586","3","0.10534488","-0.20111294","9.921572","sit up","0"
"1132807774749461","3","0.10534488","-0.21068975","9.902418","sit up","0"
"1132807794740086","3","0.095768064","-0.22026655","9.931149","sit up","0"
"1132807814730711","3","0.10534488","-0.20111294","9.921572","sit up","0"
"1132807834752586","3","0.10534488","-0.18195933","9.892841","sit up","0"
"1132807854744774","3","0.11492168","-0.19153613","9.931149","sit up","0"
"1132807874735399","3","0.08619126","-0.20111294","9.940725","sit up","0"
"1132807894726024","3","0.12449849","-0.22026655","9.892841","sit up","0"
"1132807914747899","3","0.11492168","-0.22026655","9.911995","sit up","0"
"1132807934738524","3","0.10534488","-0.21068975","9.892841","sit up","0"
"1132807954729149","3","0.11492168","-0.22026655","9.902418","sit up","0"
"1132807974752586","3","0.11492168","-0.21068975","9.931149","sit up","0"
"1132807994743211","3","0.095768064","-0.19153613","9.902418","sit up","0"
"1132808014733836","3","0.11492168","-0.21068975","9.921572","sit up","0"
"1132808034724461","3","0.095768064","-0.23942018","9.902418","sit up","0"
"1132808054747899","3","0.10534488","-0.22026655","9.921572","sit up","0"
"1132808074738524","3","0.08619126","-0.21068975","9.921572","sit up","0"
"1132808094729149","3","0.095768064","-0.22026655","9.902418","sit up","0"
"1132808114751024","3","0.10534488","-0.19153613","9.911995","sit up","0"
"1132808134741649","3","0.11492168","-0.21068975","9.902418","sit up","0"
"1132808154732274","3","0.095768064","-0.21068975","9.931149","sit up","0"
"1132808174755711","3","0.12449849","-0.22026655","9.921572","sit up","0"
"1132808194763524","3","0.10534488","-0.21068975","9.902418","sit up","0"
"1132808214736961","3","0.095768064","-0.21068975","9.921572","sit up","0"
"1132808234727586","3","0.10534488","-0.21068975","9.902418","sit up","0"
"1132808254751024","3","0.12449849","-0.20111294","9.921572","sit up","0"
"1132808274741649","3","0.10534488","-0.21068975","9.902418","sit up","0"
"1132808294732274","3","0.10534488","-0.19153613","9.921572","sit up","0"
"1132808314754149","3","0.10534488","-0.20111294","9.902418","sit up","0"
"1132808334744774","3","0.10534488","-0.20111294","9.883265","sit up","0"
"1132808354735399","3","0.11492168","-0.22026655","9.921572","sit up","0"
"1132808374727586","3","0.10534488","-0.20111294","9.892841","sit up","0"
"1132808394749461","3","0.10534488","-0.19153613","9.931149","sit up","0"
"1132808414740086","3","0.095768064","-0.20111294","9.892841","sit up","0"
"1132808434730711","3","0.10534488","-0.22984336","9.931149","sit up","0"
"1132808454752586","3","0.076614454","-0.20111294","9.921572","sit up","0"
"1132808474744774","3","0.11492168","-0.19153613","9.902418","stand up","0"
"1132808494735399","3","0.095768064","-0.19153613","9.931149","stand up","0"
"1132808514726024","3","0.10534488","-0.22984336","9.902418","stand up","0"
"1132808534747899","3","0.08619126","-0.21068975","9.931149","stand up","0"
"1132808554738524","3","0.10534488","-0.20111294","9.911995","stand up","0"
"1132808574730711","3","0.095768064","-0.19153613","9.892841","stand up","0"
"1132808594752586","3","0.095768064","-0.21068975","9.902418","stand up","0"
"1132808614743211","3","0.076614454","-0.19153613","9.844957","stand up","0"
"1132808634733836","3","0.10534488","-0.20111294","9.969456","stand up","0"
"1132808654726024","3","0.12449849","-0.22984336","10.036493","stand up","0"
"1132808674747899","3","0.06703765","-0.19153613","9.931149","stand up","0"
"1132808694738524","3","0.06703765","-0.18195933","9.835381","stand up","0"
"1132808714729149","3","0.10534488","-0.19153613","9.892841","stand up","0"
"1132808734751024","3","0.095768064","-0.20111294","10.007763","stand up","0"
"1132808754741649","3","0.095768064","-0.22026655","9.950302","stand up","0"
"1132808774732274","3","0.095768064","-0.22026655","9.892841","stand up","0"
"1132808794724461","3","0.10534488","-0.19153613","9.892841","stand up","0"
"1132808814746336","3","0.10534488","-0.21068975","9.902418","stand up","0"
"1132808834736961","3","0.095768064","-0.22984336","9.902418","stand up","0"
"1132808854727586","3","0.095768064","-0.20111294","9.892841","stand up","0"
"1132808874751024","3","0.076614454","-0.20111294","9.902418","stand up","0"
"1132808894758836","3","0.08619126","-0.21068975","9.911995","stand up","0"
"1132808914732274","3","0.076614454","-0.19153613","9.902418","stand up","0"
"1132808934755711","3","0.095768064","-0.19153613","9.902418","stand up","0"
"1132808954744774","3","0.076614454","-0.21068975","9.892841","stand up","0"
"1132808974735399","3","0.06703765","-0.19153613","9.911995","stand up","0"
"1132808994727586","3","0.06703765","-0.21068975","9.911995","stand up","0"
"1132809014749461","3","0.05746084","-0.21068975","9.883265","stand up","0"
"1132809034740086","3","0.08619126","-0.20111294","9.911995","stand up","0"
"1132809054732274","3","0.076614454","-0.20111294","9.911995","stand up","0"
"1132809074754149","3","0.038307227","-0.17238252","9.931149","stand up","0"
"1132809094744774","3","0.06703765","-0.20111294","9.921572","stand up","0"
"1132809114735399","3","0.08619126","-0.19153613","9.921572","stand up","0"
"1132809134726024","3","0.019153614","-0.17238252","9.883265","stand up","0"
"1132809154749461","3","0.02873042","-0.18195933","9.864111","stand up","0"
"1132809174740086","3","0.05746084","-0.17238252","9.911995","stand up","0"
"1132809194730711","3","0.019153614","-0.16280572","9.892841","stand up","0"
"1132809214752586","3","0.038307227","-0.20111294","9.911995","stand up","0"
"1132809234743211","3","-0.10534488","-0.16280572","9.854534","stand up","0"
"1132809254733836","3","-0.22026655","-0.16280572","9.835381","stand up","0"
"1132809274726024","3","-0.038307227","-0.1436521","9.854534","stand up","0"
"1132809294747899","3","0.009576807","-0.17238252","9.9790325","stand up","0"
"1132809314738524","3","0.009576807","-0.095768064","10.01734","stand up","0"
"1132809334729149","3","0.095768064","-0.19153613","9.969456","stand up","0"
"1132809354751024","3","0.15322891","-0.22984336","10.036493","stand up","0"
"1132809374743211","3","0.1340753","-0.18195933","9.969456","stand up","0"
"1132809394733836","3","-0.095768064","-0.11492168","9.883265","stand up","0"
"1132809414724461","3","0.21068975","-0.2873042","9.959879","stand up","0"
"1132809434746336","3","-0.02873042","-0.16280572","9.902418","stand up","0"
"1132809454736961","3","0.05746084","-0.22026655","9.902418","stand up","0"
"1132809474727586","3","0.20111294","-0.17238252","9.940725","stand up","0"
"1132809494751024","3","0.15322891","-0.16280572","9.9790325","stand up","0"
"1132809514741649","3","0.0","-0.15322891","9.873688","stand up","0"
"1132809534732274","3","0.08619126","-0.15322891","9.969456","stand up","0"
"1132809554754149","3","0.019153614","-0.1436521","9.911995","stand up","0"
"1132809574746336","3","0.009576807","-0.15322891","9.931149","stand up","0"
"1132809594752586","3","0.0","-0.1436521","9.883265","stand up","0"
"1132809614727586","3","0.095768064","-0.20111294","9.902418","stand up","0"
"1132809634749461","3","0.02873042","-0.20111294","9.988609","stand up","0"
"1132809654740086","3","-0.1340753","-0.076614454","9.787497","stand up","0"
"1132809674732274","3","0.038307227","-0.16280572","9.902418","stand up","0"
"1132809694754149","3","0.0","-0.15322891","9.940725","stand up","0"
"1132809714744774","3","0.038307227","-0.1436521","9.892841","stand up","0"
"1132809734735399","3","0.02873042","-0.15322891","9.892841","stand up","0"
"1132809754727586","3","0.009576807","-0.18195933","9.892841","stand up","0"
"1132809774749461","3","0.02873042","-0.16280572","9.921572","stand up","0"
"1132809794740086","3","0.06703765","-0.17238252","9.892841","stand up","0"
"1132809814730711","3","0.019153614","-0.16280572","9.921572","stand up","0"
"1132809834752586","3","0.009576807","-0.15322891","9.921572","stand up","0"
"1132809854744774","3","0.047884032","-0.15322891","9.892841","stand up","0"
"1132809874735399","3","0.0","-0.17238252","9.950302","stand up","0"
"1132809894726024","3","0.019153614","-0.16280572","9.902418","stand up","0"
"1132809914747899","3","0.05746084","-0.16280572","9.883265","stand up","0"
"1132809934738524","3","0.009576807","-0.1340753","9.931149","stand up","0"
"1132809954729149","3","0.05746084","-0.17238252","9.864111","stand up","0"
"1132809974752586","3","0.009576807","-0.1436521","9.921572","stand up","0"
"1132809994743211","3","0.009576807","-0.1436521","9.931149","stand up","0"
"1132810014733836","3","0.02873042","-0.16280572","9.902418","stand up","0"
"1132810034724461","3","0.02873042","-0.15322891","9.931149","stand up","0"
"1132810054746336","3","0.019153614","-0.16280572","9.883265","stand up","0"
"1132810074736961","3","0.038307227","-0.16280572","9.892841","stand up","0"
"1132810094729149","3","0.009576807","-0.18195933","9.921572","stand up","0"
"1132810114751024","3","0.02873042","-0.17238252","9.892841","stand up","0"
"1132810134741649","3","0.038307227","-0.16280572","9.911995","stand up","0"
"1132810154732274","3","0.02873042","-0.16280572","9.892841","stand up","0"
"1132810174754149","3","0.019153614","-0.15322891","9.921572","stand up","0"
"1132810194746336","3","0.02873042","-0.16280572","9.931149","stand up","0"
"1132810214736961","3","0.02873042","-0.16280572","9.892841","stand up","0"
"1132810234727586","3","0.0","-0.16280572","9.921572","stand up","0"
"1132810254749461","3","0.019153614","-0.1436521","9.902418","stand up","0"
"1132810274740086","3","0.009576807","-0.15322891","9.931149","stand up","0"
"1132810294747899","3","0.02873042","-0.16280572","9.892841","stand up","0"
"1132810314754149","3","0.02873042","-0.15322891","9.911995","stand up","0"
"1132810334744774","3","0.019153614","-0.15322891","9.921572","stand up","0"
"1132810354735399","3","0.009576807","-0.1436521","9.921572","stand up","0"
"1132810374727586","3","0.019153614","-0.15322891","9.931149","stand up","0"
"1132810394749461","3","0.02873042","-0.16280572","9.911995","stand up","0"
"1132810414740086","3","0.047884032","-0.16280572","9.902418","stand up","0"
"1132810434730711","3","0.038307227","-0.16280572","9.902418","stand up","0"
"1132810454752586","3","0.02873042","-0.1436521","9.911995","stand up","0"
"1132810474744774","3","0.02873042","-0.17238252","9.892841","stand up","0"
"1132810494735399","3","0.02873042","-0.15322891","9.902418","stand up","0"
"1132810514726024","3","0.019153614","-0.15322891","9.911995","stand up","0"
"1132810534747899","3","0.02873042","-0.17238252","9.902418","stand up","0"
"1132810554738524","3","0.019153614","-0.15322891","9.921572","stand up","0"
"1132810574730711","3","0.02873042","-0.18195933","9.902418","stand up","0"
"1132810594752586","3","0.02873042","-0.15322891","9.921572","stand up","0"
"1132810614743211","3","0.02873042","-0.15322891","9.902418","stand up","0"
"1132810634733836","3","0.009576807","-0.17238252","9.902418","stand up","0"
"1132810654726024","3","0.038307227","-0.17238252","9.931149","stand up","0"
"1132810674747899","3","0.038307227","-0.16280572","9.921572","stand up","0"
"1132810694738524","3","0.02873042","-0.17238252","9.911995","stand up","0"
"1132810714729149","3","0.019153614","-0.15322891","9.902418","stand up","0"
"1132810734751024","3","0.02873042","-0.1436521","9.921572","stand up","0"
"1132810754741649","3","0.019153614","-0.1436521","9.911995","stand up","0"
"1132810774733836","3","0.019153614","-0.16280572","9.911995","stand up","0"
"1132810794755711","3","0.019153614","-0.15322891","9.931149","stand up","0"
"1132810814746336","3","0.009576807","-0.1436521","9.921572","stand up","0"
"1132810834736961","3","0.009576807","-0.16280572","9.911995","stand up","0"
"1132810854727586","3","0.009576807","-0.15322891","9.921572","stand up","0"
"1132810874751024","3","0.019153614","-0.15322891","9.921572","stand up","0"
"1132810894741649","3","0.02873042","-0.1436521","9.921572","stand up","0"
"1132810914732274","3","0.02873042","-0.1436521","9.892841","stand up","0"
"1132810934754149","3","0.02873042","-0.15322891","9.940725","stand up","0"
"1132810954744774","3","0.009576807","-0.15322891","9.902418","stand up","0"
"1132810974735399","3","0.019153614","-0.1436521","9.931149","stand up","0"
"1132810994743211","3","0.02873042","-0.1340753","9.911995","stand up","0"
"1132811014749461","3","0.02873042","-0.16280572","9.911995","stand up","0"
"1132811034740086","3","0.009576807","-0.1340753","9.911995","stand up","0"
"1132811054730711","3","0.038307227","-0.16280572","9.940725","stand up","0"
"1132811074752586","3","0.009576807","-0.1340753","9.921572","stand up","0"
"1132811094744774","3","0.009576807","-0.1436521","9.911995","stand up","0"
"1132811114735399","3","0.019153614","-0.15322891","9.940725","stand up","0"
"1132811134726024","3","0.019153614","-0.1436521","9.921572","stand up","0"
"1132811154747899","3","0.019153614","-0.1436521","9.921572","stand up","0"
"1132811174738524","3","0.019153614","-0.15322891","9.921572","stand up","0"
"1132811194730711","3","0.009576807","-0.16280572","9.931149","stand up","0"
"1132811214752586","3","0.038307227","-0.15322891","9.902418","stand up","0"
"1132811234743211","3","0.009576807","-0.16280572","9.911995","stand up","0"
"1132811254733836","3","0.038307227","-0.15322891","9.902418","stand up","0"
"1132811274724461","3","0.038307227","-0.1436521","9.911995","stand up","0"
"1132811294747899","3","0.019153614","-0.16280572","9.921572","stand up","0"
"1132811314738524","3","0.009576807","-0.1340753","9.931149","stand up","0"
"1132811334729149","3","0.02873042","-0.17238252","9.911995","stand up","0"
"1132811354751024","3","0.047884032","-0.18195933","9.911995","stand up","0"
"1132811374743211","3","0.02873042","-0.15322891","9.902418","stand up","0"
"1132811394733836","3","0.019153614","-0.15322891","9.911995","stand up","0"
"1132811414724461","3","0.02873042","-0.15322891","9.940725","stand up","0"
"1132811434746336","3","0.02873042","-0.17238252","9.902418","stand up","0"
"1132811454736961","3","0.019153614","-0.16280572","9.931149","stand up","0"
"1132811474729149","3","0.038307227","-0.1436521","9.921572","stand up","0"
"1132811494751024","3","0.02873042","-0.17238252","9.921572","stand up","0"
"1132811514741649","3","0.02873042","-0.15322891","9.892841","stand up","0"
"1132811534732274","3","0.019153614","-0.16280572","9.940725","stand up","0"
"1132811554754149","3","0.009576807","-0.15322891","9.902418","stand up","0"
"1132811574746336","3","0.02873042","-0.16280572","9.911995","stand up","0"
"1132811594735399","3","0.02873042","-0.15322891","9.931149","stand up","0"
"1132811614727586","3","0.02873042","-0.15322891","9.892841","stand up","0"
"1132811634749461","3","0.019153614","-0.16280572","9.921572","stand up","0"
"1132811654740086","3","0.02873042","-0.17238252","9.902418","stand up","0"
"1132811674730711","3","0.038307227","-0.15322891","9.911995","stand up","0"
"1132811694769774","3","0.009576807","-0.15322891","9.911995","stand up","0"
"1132811714744774","3","0.009576807","-0.1436521","9.902418","stand up","0"
"1132811734735399","3","0.038307227","-0.16280572","9.931149","stand up","0"
"1132811754726024","3","0.02873042","-0.15322891","9.892841","stand up","0"
"1132811774747899","3","0.019153614","-0.18195933","9.902418","stand up","0"
"1132811794738524","3","0.0","-0.17238252","9.911995","stand up","0"
"1132811814730711","3","0.038307227","-0.16280572","9.921572","stand up","0"
"1132811834752586","3","0.02873042","-0.1340753","9.921572","stand up","0"
"1132811854743211","3","0.038307227","-0.18195933","9.931149","stand up","0"
"1132811874733836","3","0.02873042","-0.15322891","9.902418","stand up","0"
"1132811894726024","3","0.009576807","-0.16280572","9.892841","stand up","0"
"1132811914747899","3","0.02873042","-0.16280572","9.902418","stand up","0"
"1132811934738524","3","0.019153614","-0.16280572","9.921572","stand up","0"
"1132811954729149","3","0.019153614","-0.1436521","9.931149","stand up","0"
"1132811974752586","3","0.009576807","-0.16280572","9.911995","stand up","0"
"1132811994743211","3","0.019153614","-0.16280572","9.931149","stand up","0"
"1132812014733836","3","0.0","-0.1436521","9.921572","stand up","0"
"1132812034724461","3","0.009576807","-0.1436521","9.911995","stand up","0"
"1132812054746336","3","0.009576807","-0.1436521","9.921572","stand up","0"
"1132812074736961","3","0.019153614","-0.15322891","9.911995","stand up","0"
"1132812094727586","3","0.019153614","-0.1436521","9.911995","stand up","0"
"1132812114751024","3","0.02873042","-0.16280572","9.911995","stand up","0"
"1132812134741649","3","0.009576807","-0.1436521","9.911995","stand up","0"
"1132812154732274","3","0.009576807","-0.1340753","9.931149","stand up","0"
"1132812174754149","3","0.02873042","-0.16280572","9.911995","stand up","0"
"1132812194746336","3","0.038307227","-0.15322891","9.921572","stand up","0"
"1132812214736961","3","0.02873042","-0.17238252","9.911995","stand up","0"
"1132812234727586","3","0.038307227","-0.16280572","9.921572","stand up","0"
"1132812254749461","3","0.009576807","-0.16280572","9.921572","stand up","0"
"1132812274740086","3","0.02873042","-0.12449849","9.921572","stand up","0"
"1132812294732274","3","0.019153614","-0.16280572","9.921572","stand up","0"
"1132812314754149","3","0.009576807","-0.1436521","9.921572","stand up","0"
"1132812334744774","3","0.019153614","-0.17238252","9.940725","stand up","0"
"1132812354735399","3","0.038307227","-0.1436521","9.911995","stand up","0"
"1132812374726024","3","0.019153614","-0.1340753","9.931149","stand up","0"
"1132812394765086","3","0.019153614","-0.15322891","9.921572","stand up","0"
"1132812414740086","3","0.02873042","-0.1436521","9.902418","stand up","0"
"1132812434730711","3","0.038307227","-0.15322891","9.911995","stand up","0"
"1132812454752586","3","0.019153614","-0.15322891","9.911995","stand up","0"
"1132812486740086","3","0.019153614","-0.16280572","9.902418","none","1"
"1132812506730711","3","0.02873042","-0.16280572","9.892841","none","1"
"1132812526751024","3","0.009576807","-0.16280572","9.902418","none","1"
"1132812546743211","3","0.009576807","-0.15322891","9.911995","none","1"
"1132812566733836","3","0.038307227","-0.15322891","9.921572","none","1"
"1132812586724461","3","0.019153614","-0.15322891","9.921572","none","1"
"1132812606746336","3","0.038307227","-0.17238252","9.921572","none","1"
"1132812626736961","3","0.02873042","-0.16280572","9.911995","none","1"
"1132812646729149","3","0.0","-0.1436521","9.931149","none","1"
"1132812666751024","3","0.02873042","-0.16280572","9.921572","none","1"
"1132812686741649","3","0.009576807","-0.1436521","9.911995","none","1"
"1132812706732274","3","0.02873042","-0.16280572","9.911995","none","1"
"1132812726754149","3","0.019153614","-0.15322891","9.911995","none","1"
"1132812746746336","3","0.019153614","-0.18195933","9.921572","none","1"
"1132812766736961","3","0.02873042","-0.15322891","9.940725","none","1"
"1132812786727586","3","0.019153614","-0.1436521","9.921572","none","1"
"1132812806749461","3","0.019153614","-0.1436521","9.911995","none","1"
"1132812826740086","3","0.019153614","-0.15322891","9.911995","none","1"
"1132812846732274","3","0.0","-0.1340753","9.921572","none","1"
"1132812866752586","3","0.009576807","-0.1436521","9.902418","none","1"
"1132812886744774","3","0.009576807","-0.15322891","9.902418","none","1"
"1132812906735399","3","0.009576807","-0.1436521","9.921572","none","1"
"1132812926726024","3","0.019153614","-0.1436521","9.892841","none","1"
"1132812946749461","3","0.019153614","-0.1340753","9.911995","none","1"
"1132812966738524","3","0.009576807","-0.12449849","9.931149","none","1"
"1132812986730711","3","0.009576807","-0.1340753","9.921572","none","1"
"1132813006752586","3","0.009576807","-0.1436521","9.911995","none","1"
"1132813026743211","3","0.009576807","-0.1436521","9.911995","none","1"
"1132813046733836","3","0.019153614","-0.15322891","9.911995","none","1"
"1132813066726024","3","0.019153614","-0.1436521","9.911995","none","1"
"1132813086747899","3","0.019153614","-0.16280572","9.911995","none","1"
"1132813106754149","3","0.0","-0.1340753","9.911995","none","1"
"1132813126729149","3","0.019153614","-0.1436521","9.911995","none","1"
"1132813146751024","3","0.038307227","-0.16280572","9.902418","none","1"
"1132813166743211","3","0.02873042","-0.16280572","9.931149","none","1"
"1132813186733836","3","0.02873042","-0.16280572","9.902418","none","1"
"1132813206724461","3","0.009576807","-0.16280572","9.921572","none","1"
"1132813226746336","3","0.02873042","-0.1436521","9.921572","none","1"
"1132813246736961","3","0.009576807","-0.16280572","9.921572","none","1"
"1132813266729149","3","0.038307227","-0.16280572","9.892841","none","1"
"1132813286751024","3","0.019153614","-0.15322891","9.902418","none","1"
"1132813306741649","3","0.019153614","-0.16280572","9.921572","none","1"
"1132813326732274","3","0.019153614","-0.16280572","9.911995","none","1"
"1132813346754149","3","0.02873042","-0.17238252","9.902418","none","1"
"1132813366744774","3","0.019153614","-0.19153613","9.931149","none","1"
"1132813386736961","3","0.02873042","-0.17238252","9.911995","none","1"
"1132813406727586","3","0.02873042","-0.1436521","9.902418","none","1"
"1132813426749461","3","0.038307227","-0.16280572","9.902418","none","1"
"1132813446740086","3","0.038307227","-0.16280572","9.921572","none","1"
"1132813466732274","3","0.038307227","-0.15322891","9.911995","none","1"
"1132813486754149","3","0.019153614","-0.16280572","9.911995","none","1"
"1132813506744774","3","0.009576807","-0.17238252","9.892841","none","1"
"1132813526735399","3","0.009576807","-0.16280572","9.921572","none","1"
"1132813546726024","3","0.009576807","-0.15322891","9.902418","none","1"
"1132813566749461","3","0.019153614","-0.1436521","9.921572","none","1"
"1132813586740086","3","0.019153614","-0.16280572","9.911995","none","1"
"1132813606730711","3","0.019153614","-0.1436521","9.911995","none","1"
"1132813626752586","3","0.02873042","-0.15322891","9.921572","none","1"
"1132813646744774","3","0.019153614","-0.15322891","9.892841","none","1"
"1132813666735399","3","0.019153614","-0.16280572","9.902418","none","1"
"1132813686726024","3","0.019153614","-0.15322891","9.911995","none","1"
"1132813706747899","3","0.047884032","-0.16280572","9.873688","none","1"
"1132813726738524","3","0.019153614","-0.15322891","9.892841","none","1"
"1132813746729149","3","0.038307227","-0.16280572","9.911995","none","1"
"1132813766752586","3","0.009576807","-0.15322891","9.902418","none","1"
"1132813786743211","3","0.019153614","-0.15322891","9.911995","none","1"
"1132813806749461","3","0.02873042","-0.1436521","9.931149","none","1"
"1132813826724461","3","0.02873042","-0.15322891","9.892841","none","1"
"1132813846746336","3","0.02873042","-0.17238252","9.921572","none","1"
"1132813866738524","3","0.019153614","-0.18195933","9.931149","none","1"
"1132813886727586","3","0.038307227","-0.16280572","9.902418","none","1"
"1132813906751024","3","0.02873042","-0.17238252","9.902418","none","1"
"1132813926741649","3","0.02873042","-0.17238252","9.931149","none","1"
"1132813946732274","3","0.02873042","-0.16280572","9.892841","none","1"
"1132813966754149","3","0.02873042","-0.15322891","9.902418","none","1"
"1132813986746336","3","0.02873042","-0.15322891","9.892841","none","1"
"1132814006736961","3","0.019153614","-0.16280572","9.902418","none","1"
"1132814026727586","3","0.038307227","-0.18195933","9.902418","none","1"
"1132814046749461","3","0.019153614","-0.15322891","9.911995","none","1"
"1132814066740086","3","0.019153614","-0.16280572","9.911995","none","1"
"1132814086730711","3","0.02873042","-0.1436521","9.911995","none","1"
"1132814106754149","3","0.009576807","-0.16280572","9.940725","none","1"
"1132814126744774","3","0.019153614","-0.15322891","9.892841","none","1"
"1132814146735399","3","0.02873042","-0.16280572","9.911995","none","1"
"1132814166727586","3","0.019153614","-0.16280572","9.921572","none","1"
"1132814186749461","3","0.02873042","-0.15322891","9.911995","none","1"
"1132814206740086","3","0.019153614","-0.1436521","9.921572","none","1"
"1132814226730711","3","0.02873042","-0.17238252","9.892841","none","1"
"1132814246752586","3","0.019153614","-0.18195933","9.911995","none","1"
"1132814266743211","3","0.019153614","-0.15322891","9.892841","none","1"
"1132814286733836","3","0.02873042","-0.15322891","9.921572","none","1"
"1132814306726024","3","0.019153614","-0.16280572","9.902418","none","1"
"1132814326747899","3","0.019153614","-0.15322891","9.931149","none","1"
"1132814346738524","3","0.019153614","-0.15322891","9.921572","none","1"
"1132814366729149","3","0.019153614","-0.19153613","9.931149","none","1"
"1132814386752586","3","0.047884032","-0.15322891","9.902418","none","1"
"1132814406743211","3","0.038307227","-0.16280572","9.902418","none","1"
"1132814426733836","3","0.019153614","-0.15322891","9.902418","none","1"
"1132814446724461","3","0.02873042","-0.16280572","9.911995","none","1"
"1132814466747899","3","0.019153614","-0.16280572","9.902418","none","1"
"1132814486736961","3","0.02873042","-0.18195933","9.883265","none","1"
"1132814506744774","3","0.038307227","-0.1436521","9.911995","none","1"
"1132814526751024","3","0.02873042","-0.15322891","9.902418","none","1"
"1132814546741649","3","0.019153614","-0.1436521","9.911995","none","1"
"1132814566732274","3","0.019153614","-0.16280572","9.902418","none","1"
"1132814586755711","3","0.02873042","-0.19153613","9.911995","none","1"
"1132814606746336","3","0.02873042","-0.16280572","9.902418","none","1"
"1132814626736961","3","0.02873042","-0.17238252","9.902418","none","1"
"1132814646727586","3","0.02873042","-0.16280572","9.892841","none","1"
"1132814666749461","3","0.009576807","-0.15322891","9.911995","none","1"
"1132814686741649","3","0.019153614","-0.17238252","9.911995","none","1"
"1132814706732274","3","0.02873042","-0.17238252","9.892841","none","1"
"1132814726754149","3","0.047884032","-0.18195933","9.883265","none","1"
"1132814746744774","3","0.02873042","-0.15322891","9.921572","none","1"
"1132814766735399","3","0.038307227","-0.17238252","9.902418","none","1"
"1132814786727586","3","0.02873042","-0.17238252","9.892841","none","1"
"1132814806749461","3","0.02873042","-0.16280572","9.902418","none","1"
"1132814826740086","3","0.038307227","-0.16280572","9.902418","none","1"
"1132814846730711","3","0.019153614","-0.15322891","9.902418","none","1"
"1132814866752586","3","0.038307227","-0.16280572","9.911995","none","1"
"1132814886744774","3","0.019153614","-0.16280572","9.902418","none","1"
"1132814906735399","3","0.019153614","-0.15322891","9.902418","none","1"
"1132814926726024","3","0.02873042","-0.16280572","9.883265","none","1"
"1132814946747899","3","0.047884032","-0.15322891","9.921572","none","1"
"1132814966738524","3","0.0","-0.1436521","9.902418","none","1"
"1132814986730711","3","0.019153614","-0.16280572","9.921572","none","1"
"1132815006752586","3","0.02873042","-0.1436521","9.902418","none","1"
"1132815026743211","3","0.02873042","-0.17238252","9.911995","none","1"
"1132815046733836","3","0.02873042","-0.16280572","9.902418","none","1"
"1132815066726024","3","0.019153614","-0.1436521","9.921572","none","1"
"1132815086746336","3","0.019153614","-0.15322891","9.911995","none","1"
"1132815106738524","3","0.02873042","-0.1436521","9.902418","none","1"
"1132815126729149","3","0.02873042","-0.16280572","9.911995","none","1"
"1132815146751024","3","0.019153614","-0.12449849","9.921572","none","1"
"1132815166741649","3","0.02873042","-0.16280572","9.902418","none","1"
"1132815186732274","3","0.02873042","-0.16280572","9.940725","none","1"
"1132815206771336","3","0.038307227","-0.16280572","9.892841","none","1"
"1132815226746336","3","0.02873042","-0.15322891","9.892841","none","1"
"1132815246736961","3","0.019153614","-0.1436521","9.902418","none","1"
"1132815266727586","3","0.02873042","-0.1436521","9.892841","none","1"
"1132815286749461","3","0.019153614","-0.17238252","9.902418","none","1"
"1132815306741649","3","0.02873042","-0.16280572","9.911995","none","1"
"1132815326732274","3","0.02873042","-0.17238252","9.911995","none","1"
"1132815346754149","3","0.019153614","-0.1436521","9.931149","none","1"
"1132815366744774","3","0.047884032","-0.16280572","9.892841","none","1"
"1132815386736961","3","0.009576807","-0.1436521","9.892841","none","1"
"1132815406727586","3","0.02873042","-0.17238252","9.921572","none","1"
"1132815426749461","3","0.02873042","-0.15322891","9.931149","none","1"
"1132815446740086","3","0.009576807","-0.17238252","9.921572","none","1"
"1132815466732274","3","0.009576807","-0.16280572","9.911995","none","1"
"1132815486754149","3","0.019153614","-0.15322891","9.892841","none","1"
"1132815506744774","3","0.019153614","-0.1436521","9.911995","none","1"
"1132815526735399","3","0.019153614","-0.16280572","9.892841","none","1"
"1132815546726024","3","0.009576807","-0.15322891","9.911995","none","1"
"1132815566747899","3","0.02873042","-0.16280572","9.911995","none","1"
"1132815586738524","3","0.02873042","-0.16280572","9.921572","none","1"
"1132815606730711","3","0.019153614","-0.15322891","9.883265","none","1"
"1132815626752586","3","0.02873042","-0.15322891","9.902418","none","1"
"1132815646743211","3","0.019153614","-0.16280572","9.921572","none","1"
"1132815666802586","3","0.019153614","-0.18195933","9.921572","none","1"
"1132815686726024","3","0.02873042","-0.1436521","9.902418","none","1"
"1132815706747899","3","0.02873042","-0.15322891","9.911995","none","1"
"1132815726738524","3","0.019153614","-0.16280572","9.921572","none","1"
"1132815746729149","3","0.02873042","-0.15322891","9.902418","none","1"
"1132815766751024","3","0.02873042","-0.15322891","9.911995","none","1"
"1132815786741649","3","0.019153614","-0.15322891","9.892841","none","1"
"1132815806733836","3","0.0","-0.15322891","9.902418","none","1"
"1132815826724461","3","0.009576807","-0.17238252","9.902418","none","1"
"1132815846746336","3","0.019153614","-0.1436521","9.921572","none","1"
"1132815866736961","3","0.02873042","-0.15322891","9.892841","none","1"
"1132815886729149","3","0.038307227","-0.17238252","9.931149","none","1"
"1132815906766649","3","0.02873042","-0.16280572","9.902418","none","1"
"1132815926741649","3","0.038307227","-0.17238252","9.911995","none","1"
"1132815946732274","3","0.02873042","-0.17238252","9.873688","none","1"
"1132815966754149","3","0.02873042","-0.1340753","9.931149","none","1"
"1132815986744774","3","0.019153614","-0.17238252","9.911995","none","1"
"1132816006735399","3","0.019153614","-0.16280572","9.911995","none","1"
"1132816026727586","3","0.019153614","-0.17238252","9.883265","none","1"
"1132816046749461","3","0.019153614","-0.16280572","9.911995","none","1"
"1132816066740086","3","0.038307227","-0.15322891","9.911995","none","1"
"1132816086730711","3","0.019153614","-0.1436521","9.921572","none","1"
"1132816106754149","3","0.02873042","-0.1436521","9.892841","none","1"
"1132816126744774","3","0.02873042","-0.16280572","9.921572","none","1"
"1132816146735399","3","0.02873042","-0.17238252","9.902418","none","1"
"1132816166726024","3","0.02873042","-0.16280572","9.911995","none","1"
"1132816186749461","3","0.02873042","-0.19153613","9.921572","none","1"
"1132816206738524","3","0.047884032","-0.15322891","9.911995","none","1"
"1132816226730711","3","0.019153614","-0.1436521","9.902418","none","1"
"1132816246752586","3","0.02873042","-0.1340753","9.911995","none","1"
"1132816266743211","3","0.02873042","-0.18195933","9.911995","none","1"
"1132816286733836","3","0.038307227","-0.15322891","9.892841","none","1"
"1132816306726024","3","0.038307227","-0.17238252","9.911995","none","1"
"1132816326747899","3","0.02873042","-0.16280572","9.921572","none","1"
"1132816346738524","3","0.038307227","-0.18195933","9.902418","none","1"
"1132816366729149","3","0.02873042","-0.17238252","9.911995","none","1"
"1132816386752586","3","0.02873042","-0.17238252","9.911995","none","1"
"1132816406743211","3","0.02873042","-0.15322891","9.902418","none","1"
"1132816426733836","3","0.009576807","-0.16280572","9.902418","none","1"
"1132816446724461","3","0.047884032","-0.16280572","9.883265","sit down","1"
"1132816466746336","3","0.02873042","-0.15322891","9.902418","sit down","1"
"1132816486736961","3","0.02873042","-0.17238252","9.911995","sit down","1"
"1132816506729149","3","0.02873042","-0.16280572","9.911995","sit down","1"
"1132816526751024","3","0.02873042","-0.15322891","9.911995","sit down","1"
"1132816546741649","3","0.019153614","-0.15322891","9.902418","sit down","1"
"1132816566733836","3","0.02873042","-0.16280572","9.931149","sit down","1"
"1132816586754149","3","0.019153614","-0.16280572","9.969456","sit down","1"
"1132816606761961","3","0.02873042","-0.17238252","9.969456","sit down","1"
"1132816626736961","3","0.0","-0.16280572","9.835381","sit down","1"
"1132816646727586","3","0.009576807","-0.15322891","9.854534","sit down","1"
"1132816666749461","3","0.02873042","-0.17238252","9.950302","sit down","1"
"1132816686740086","3","0.02873042","-0.19153613","10.055647","sit down","1"
"1132816706732274","3","0.009576807","-0.17238252","9.9790325","sit down","1"
"1132816726754149","3","0.009576807","-0.16280572","9.864111","sit down","1"
"1132816746744774","3","0.009576807","-0.16280572","9.931149","sit down","1"
"1132816766735399","3","0.019153614","-0.1436521","9.911995","sit down","1"
"1132816786726024","3","0.02873042","-0.17238252","9.931149","sit down","1"
"1132816806749461","3","0.019153614","-0.15322891","9.892841","sit down","1"
"1132816826740086","3","0.02873042","-0.15322891","9.921572","sit down","1"
"1132816846730711","3","0.02873042","-0.17238252","9.921572","sit down","1"
"1132816866752586","3","0.02873042","-0.15322891","9.892841","sit down","1"
"1132816886744774","3","0.019153614","-0.17238252","9.911995","sit down","1"
"1132816906735399","3","0.019153614","-0.1340753","9.892841","sit down","1"
"1132816926726024","3","0.02873042","-0.15322891","9.931149","sit down","1"
"1132816946747899","3","0.02873042","-0.1436521","9.883265","sit down","1"
"1132816966738524","3","0.038307227","-0.16280572","9.911995","sit down","1"
"1132816986729149","3","0.009576807","-0.17238252","9.892841","sit down","1"
"1132817006751024","3","0.019153614","-0.16280572","9.911995","sit down","1"
"1132817026743211","3","0.02873042","-0.1340753","9.911995","sit down","1"
"1132817046733836","3","0.019153614","-0.17238252","9.902418","sit down","1"
"1132817066724461","3","0.02873042","-0.17238252","9.921572","sit down","1"
"1132817086746336","3","0.038307227","-0.15322891","9.921572","sit down","1"
"1132817106738524","3","0.02873042","-0.16280572","9.931149","sit down","1"
"1132817126729149","3","0.047884032","-0.19153613","9.902418","sit down","1"
"1132817146751024","3","0.038307227","-0.18195933","9.902418","sit down","1"
"1132817166741649","3","0.02873042","-0.15322891","9.902418","sit down","1"
"1132817186732274","3","0.009576807","-0.16280572","9.921572","sit down","1"
"1132817206754149","3","0.038307227","-0.18195933","9.940725","sit down","1"
"1132817226746336","3","0.076614454","-0.17238252","9.854534","sit down","1"
"1132817246736961","3","0.0","-0.16280572","9.959879","sit down","1"
"1132817266727586","3","0.0","-0.18195933","9.940725","sit down","1"
"1132817286751024","3","0.05746084","-0.15322891","9.902418","sit down","1"
"1132817306757274","3","0.038307227","-0.15322891","9.873688","sit down","1"
"1132817326732274","3","-0.009576807","-0.17238252","9.959879","sit down","1"
"1132817346754149","3","0.038307227","-0.16280572","9.864111","sit down","1"
"1132817366744774","3","0.05746084","-0.16280572","9.883265","sit down","1"
"1132817386735399","3","-0.05746084","-0.1340753","9.883265","sit down","1"
"1132817406727586","3","0.019153614","-0.15322891","9.835381","sit down","1"
"1132817426749461","3","0.02873042","-0.16280572","9.892841","sit down","1"
"1132817446740086","3","-0.009576807","-0.15322891","9.931149","sit down","1"
"1132817466730711","3","-0.05746084","-0.17238252","9.854534","sit down","1"
"1132817486752586","3","0.0","-0.16280572","9.883265","sit down","1"
"1132817506744774","3","-0.038307227","-0.16280572","9.892841","sit down","1"
"1132817526733836","3","0.06703765","-0.17238252","9.883265","sit down","1"
"1132817546726024","3","-0.05746084","-0.15322891","9.931149","sit down","1"
"1132817566747899","3","0.1436521","-0.18195933","9.864111","sit down","1"
"1132817586738524","3","0.12449849","-0.19153613","9.950302","sit down","1"
"1132817606730711","3","0.076614454","-0.1436521","10.04607","sit down","1"
"1132817626752586","3","0.16280572","-0.21068975","9.998186","sit down","1"
"1132817646743211","3","0.17238252","-0.19153613","10.247183","sit down","1"
"1132817666733836","3","0.06703765","-0.17238252","10.448297","sit down","1"
"1132817686726024","3","0.23942018","-0.2681506","9.816227","sit down","1"
"1132817706747899","3","0.31603462","-0.2777274","9.299079","sit down","1"
"1132817726738524","3","0.21068975","-0.23942018","9.3661175","sit down","1"
"1132817746729149","3","0.0","-0.11492168","9.998186","sit down","1"
"1132817766751024","3","-0.019153614","-0.1340753","10.314221","sit down","1"
"1132817786741649","3","0.08619126","-0.19153613","9.969456","sit down","1"
"1132817806733836","3","-0.06703765","-0.15322891","9.816227","sit down","1"
"1132817826755711","3","-0.1436521","-0.21068975","9.921572","sit down","1"
"1132817846746336","3","-0.10534488","-0.18195933","9.816227","sit down","1"
"1132817866736961","3","-0.038307227","-0.18195933","9.787497","sit down","1"
"1132817886727586","3","-0.009576807","-0.16280572","9.825804","sit down","1"
"1132817906749461","3","-0.019153614","-0.19153613","9.940725","sit down","1"
"1132817926741649","3","0.0","-0.18195933","9.854534","sit down","1"
"1132817946732274","3","0.019153614","-0.19153613","9.864111","sit down","1"
"1132817966754149","3","0.038307227","-0.18195933","9.921572","sit down","1"
"1132817986744774","3","0.019153614","-0.16280572","9.902418","sit down","1"
"1132818006752586","3","0.10534488","-0.19153613","9.911995","sit down","1"
"1132818026727586","3","0.10534488","-0.19153613","9.988609","sit down","1"
"1132818046749461","3","0.12449849","-0.19153613","9.959879","sit down","1"
"1132818066740086","3","0.1436521","-0.21068975","9.940725","sit down","1"
"1132818086730711","3","0.10534488","-0.18195933","9.959879","sit down","1"
"1132818106754149","3","0.10534488","-0.18195933","9.921572","sit down","1"
"1132818126744774","3","0.11492168","-0.19153613","9.959879","sit down","1"
"1132818146735399","3","0.095768064","-0.20111294","9.969456","sit down","1"
"1132818166726024","3","0.08619126","-0.18195933","9.940725","sit down","1"
"1132818186747899","3","0.10534488","-0.18195933","9.921572","sit down","1"
"1132818206740086","3","0.10534488","-0.18195933","9.969456","sit down","1"
"1132818226730711","3","0.10534488","-0.19153613","9.921572","sit down","1"
"1132818246752586","3","0.05746084","-0.19153613","9.911995","sit down","1"
"1132818266744774","3","0.076614454","-0.17238252","9.835381","sit down","1"
"1132818286735399","3","0.009576807","-0.18195933","9.835381","sit down","1"
"1132818306726024","3","-0.02873042","-0.15322891","9.854534","sit down","1"
"1132818326747899","3","-0.019153614","-0.16280572","9.835381","sit down","1"
"1132818346738524","3","0.0","-0.16280572","9.854534","sit down","1"
"1132818366729149","3","-0.05746084","-0.16280572","9.892841","sit down","1"
"1132818386752586","3","0.23942018","-0.19153613","9.9790325","sit down","1"
"1132818406743211","3","0.02873042","-0.20111294","9.892841","sit down","1"
"1132818426733836","3","0.009576807","-0.19153613","9.854534","sit down","1"
"1132818446724461","3","0.11492168","-0.18195933","9.950302","sit down","1"
"1132818466747899","3","0.1436521","-0.20111294","9.940725","sit down","1"
"1132818486736961","3","0.095768064","-0.18195933","9.911995","sit down","1"
"1132818506727586","3","0.10534488","-0.19153613","9.931149","sit down","1"
"1132818526751024","3","0.1340753","-0.21068975","9.911995","sit down","1"
"1132818546741649","3","0.11492168","-0.20111294","9.959879","sit down","1"
"1132818566732274","3","0.12449849","-0.19153613","9.940725","sit down","1"
"1132818586755711","3","0.11492168","-0.20111294","9.931149","sit down","1"
"1132818606746336","3","0.08619126","-0.18195933","9.911995","sit down","1"
"1132818626736961","3","0.11492168","-0.19153613","9.902418","sit down","1"
"1132818646729149","3","0.095768064","-0.18195933","9.931149","sit down","1"
"1132818666751024","3","0.076614454","-0.18195933","9.921572","sit down","1"
"1132818686740086","3","0.08619126","-0.18195933","9.902418","sit down","1"
"1132818706747899","3","0.06703765","-0.17238252","9.921572","sit down","1"
"1132818726754149","3","0.047884032","-0.17238252","9.902418","sit down","1"
"1132818746744774","3","0.05746084","-0.18195933","9.911995","sit down","1"
"1132818766735399","3","0.05746084","-0.1436521","9.864111","sit down","1"
"1132818786727586","3","0.05746084","-0.18195933","9.892841","sit down","1"
"1132818806747899","3","0.05746084","-0.16280572","9.911995","sit down","1"
"1132818826740086","3","0.05746084","-0.17238252","9.911995","sit down","1"
"1132818846730711","3","0.06703765","-0.19153613","9.902418","sit down","1"
"1132818866754149","3","0.095768064","-0.16280572","9.902418","sit down","1"
"1132818886744774","3","0.08619126","-0.17238252","9.931149","sit down","1"
"1132818906735399","3","0.095768064","-0.20111294","9.892841","sit down","1"
"1132818926726024","3","0.08619126","-0.17238252","9.940725","sit down","1"
"1132818946747899","3","0.076614454","-0.15322891","9.902418","sit down","1"
"1132818966738524","3","0.095768064","-0.17238252","9.940725","sit down","1"
"1132818986730711","3","0.10534488","-0.19153613","9.931149","sit down","1"
"1132819006752586","3","0.095768064","-0.18195933","9.940725","sit down","1"
"1132819026743211","3","0.095768064","-0.18195933","9.921572","sit down","1"
"1132819046733836","3","0.095768064","-0.20111294","9.911995","sit down","1"
"1132819066724461","3","0.08619126","-0.18195933","9.921572","sit down","1"
"1132819086747899","3","0.076614454","-0.17238252","9.911995","sit down","1"
"1132819106738524","3","0.076614454","-0.19153613","9.911995","sit down","1"
"1132819126729149","3","0.06703765","-0.18195933","9.902418","sit down","1"
"1132819146751024","3","0.05746084","-0.17238252","9.902418","sit down","1"
"1132819166741649","3","0.06703765","-0.18195933","9.940725","sit down","1"
"1132819186733836","3","0.05746084","-0.18195933","9.883265","sit down","1"
"1132819206755711","3","0.076614454","-0.20111294","9.931149","sit down","1"
"1132819226746336","3","0.08619126","-0.18195933","9.902418","sit down","1"
"1132819246736961","3","0.05746084","-0.18195933","9.911995","sit down","1"
"1132819266729149","3","0.08619126","-0.17238252","9.931149","sit down","1"
"1132819286751024","3","0.08619126","-0.16280572","9.902418","sit down","1"
"1132819306740086","3","0.08619126","-0.19153613","9.911995","sit down","1"
"1132819326732274","3","0.08619126","-0.20111294","9.892841","sit down","1"
"1132819346754149","3","0.08619126","-0.17238252","9.921572","sit down","1"
"1132819366744774","3","0.08619126","-0.18195933","9.902418","sit down","1"
"1132819386735399","3","0.08619126","-0.16280572","9.921572","sit down","1"
"1132819406743211","3","0.076614454","-0.18195933","9.921572","sit down","1"
"1132819426749461","3","0.076614454","-0.16280572","9.902418","sit down","1"
"1132819446738524","3","0.05746084","-0.18195933","9.921572","sit down","1"
"1132819466730711","3","0.076614454","-0.16280572","9.921572","sit down","1"
"1132819486752586","3","0.05746084","-0.17238252","9.921572","sit down","1"
"1132819506744774","3","0.06703765","-0.17238252","9.921572","sit down","1"
"1132819526735399","3","0.06703765","-0.17238252","9.931149","sit down","1"
"1132819546726024","3","0.076614454","-0.17238252","9.902418","sit down","1"
"1132819566747899","3","0.076614454","-0.16280572","9.911995","sit down","1"
"1132819586740086","3","0.08619126","-0.17238252","9.902418","sit down","1"
"1132819606730711","3","0.095768064","-0.21068975","9.921572","sit down","1"
"1132819626752586","3","0.076614454","-0.17238252","9.892841","sit down","1"
"1132819646743211","3","0.076614454","-0.17238252","9.921572","sit down","1"
"1132819666733836","3","0.095768064","-0.16280572","9.921572","sit down","1"
"1132819686724461","3","0.08619126","-0.16280572","9.902418","sit down","1"
"1132819706747899","3","0.08619126","-0.17238252","9.911995","sit down","1"
"1132819726738524","3","0.095768064","-0.16280572","9.921572","sit down","1"
"1132819746729149","3","0.076614454","-0.19153613","9.911995","sit down","1"
"1132819766751024","3","0.10534488","-0.17238252","9.902418","sit down","1"
"1132819786741649","3","0.076614454","-0.16280572","9.921572","sit down","1"
"1132819806733836","3","0.06703765","-0.18195933","9.902418","sit down","1"
"1132819826755711","3","0.08619126","-0.17238252","9.921572","sit down","1"
"1132819846746336","3","0.076614454","-0.18195933","9.911995","sit down","1"
"1132819866736961","3","0.06703765","-0.18195933","9.892841","sit down","1"
"1132819886727586","3","0.08619126","-0.17238252","9.911995","sit down","1"
"1132819906751024","3","0.076614454","-0.15322891","9.931149","sit down","1"
"1132819926741649","3","0.06703765","-0.18195933","9.911995","sit down","1"
"1132819946732274","3","0.08619126","-0.18195933","9.892841","sit down","1"
"1132819966754149","3","0.076614454","-0.17238252","9.921572","sit down","1"
"1132819986746336","3","0.076614454","-0.18195933","9.911995","sit down","1"
"1132820006736961","3","0.06703765","-0.16280572","9.921572","sit down","1"
"1132820026727586","3","0.08619126","-0.16280572","9.911995","sit down","1"
"1132820046749461","3","0.06703765","-0.16280572","9.931149","sit down","1"
"1132820066740086","3","0.06703765","-0.16280572","9.931149","sit down","1"
"1132820086730711","3","0.076614454","-0.15322891","9.911995","sit down","1"
"1132820106769774","3","0.08619126","-0.19153613","9.921572","sit down","1"
"1132820126744774","3","0.06703765","-0.16280572","9.902418","sit down","1"
"1132820146735399","3","0.05746084","-0.16280572","9.921572","sit down","1"
"1132820166726024","3","0.06703765","-0.17238252","9.902418","sit down","1"
"1132820186749461","3","0.076614454","-0.16280572","9.911995","sit down","1"
"1132820206740086","3","0.08619126","-0.19153613","9.902418","sit down","1"
"1132820226730711","3","0.06703765","-0.18195933","9.902418","sit down","1"
"1132820246752586","3","0.08619126","-0.17238252","9.921572","sit down","1"
"1132820266743211","3","0.076614454","-0.16280572","9.902418","sit down","1"
"1132820286733836","3","0.06703765","-0.16280572","9.902418","sit down","1"
"1132820306726024","3","0.076614454","-0.16280572","9.940725","sit down","1"
"1132820326747899","3","0.076614454","-0.17238252","9.911995","sit down","1"
"1132820346738524","3","0.076614454","-0.15322891","9.902418","sit down","1"
"1132820366729149","3","0.05746084","-0.19153613","9.921572","sit down","1"
"1132820386752586","3","0.08619126","-0.18195933","9.902418","sit down","1"
"1132820406741649","3","0.076614454","-0.17238252","9.902418","sit down","1"
"1132820426733836","3","0.08619126","-0.17238252","9.892841","sit down","1"
"1132820446755711","3","0.06703765","-0.18195933","9.883265","lay down","1"
"1132820466746336","3","0.076614454","-0.17238252","9.940725","lay down","1"
"1132820486736961","3","0.076614454","-0.20111294","9.902418","lay down","1"
"1132820506729149","3","0.05746084","-0.16280572","9.911995","lay down","1"
"1132820526751024","3","0.06703765","-0.15322891","9.902418","lay down","1"
"1132820546741649","3","0.076614454","-0.16280572","9.911995","lay down","1"
"1132820566732274","3","0.047884032","-0.16280572","9.873688","lay down","1"
"1132820586755711","3","0.047884032","-0.17238252","9.921572","lay down","1"
"1132820606746336","3","0.05746084","-0.1340753","9.835381","lay down","1"
"1132820626736961","3","0.076614454","-0.15322891","9.950302","lay down","1"
"1132820646727586","3","0.08619126","-0.21068975","10.055647","lay down","1"
"1132820666818211","3","0.05746084","-0.19153613","10.007763","lay down","1"
"1132820686740086","3","0.06703765","-0.17238252","9.873688","lay down","1"
"1132820706732274","3","0.06703765","-0.18195933","9.892841","lay down","1"
"1132820726752586","3","0.076614454","-0.17238252","9.883265","lay down","1"
"1132820746744774","3","0.05746084","-0.17238252","9.921572","lay down","1"
"1132820766735399","3","0.05746084","-0.16280572","9.883265","lay down","1"
"1132820786727586","3","0.08619126","-0.19153613","9.931149","lay down","1"
"1132820806765086","3","0.06703765","-0.17238252","9.911995","lay down","1"
"1132820826738524","3","0.076614454","-0.17238252","9.921572","lay down","1"
"1132820846730711","3","0.06703765","-0.17238252","9.911995","lay down","1"
"1132820866752586","3","0.076614454","-0.17238252","9.911995","lay down","1"
"1132820886743211","3","0.08619126","-0.16280572","9.931149","lay down","1"
"1132820906735399","3","0.06703765","-0.15322891","9.873688","lay down","1"
"1132820926726024","3","0.076614454","-0.17238252","9.921572","lay down","1"
"1132820946747899","3","0.076614454","-0.18195933","9.921572","lay down","1"
"1132820966738524","3","0.076614454","-0.17238252","9.911995","lay down","1"
"1132820986730711","3","0.08619126","-0.18195933","9.921572","lay down","1"
"1132821006752586","3","0.076614454","-0.17238252","9.873688","lay down","1"
"1132821026743211","3","0.076614454","-0.17238252","9.931149","lay down","1"
"1132821046733836","3","0.076614454","-0.16280572","9.902418","lay down","1"
"1132821066755711","3","0.076614454","-0.1436521","9.911995","lay down","1"
"1132821086747899","3","0.05746084","-0.15322891","9.911995","lay down","1"
"1132821106738524","3","0.076614454","-0.15322891","9.921572","lay down","1"
"1132821126729149","3","0.076614454","-0.17238252","9.883265","lay down","1"
"1132821146751024","3","0.076614454","-0.15322891","9.921572","lay down","1"
"1132821166741649","3","0.08619126","-0.15322891","9.911995","lay down","1"
"1132821186732274","3","0.08619126","-0.17238252","9.931149","lay down","1"
"1132821206754149","3","0.06703765","-0.1436521","9.921572","lay down","1"
"1132821226746336","3","0.10534488","-0.1436521","9.873688","lay down","1"
"1132821246736961","3","0.17238252","-0.21068975","10.04607","lay down","1"
"1132821266727586","3","0.08619126","-0.15322891","9.959879","lay down","1"
"1132821286749461","3","0.1340753","-0.16280572","9.931149","lay down","1"
"1132821306740086","3","0.10534488","-0.1340753","9.950302","lay down","1"
"1132821326732274","3","0.19153613","-0.1436521","9.931149","lay down","1"
"1132821346754149","3","0.19153613","-0.15322891","9.950302","lay down","1"
"1132821366744774","3","0.16280572","-0.076614454","9.940725","lay down","1"
"1132821386735399","3","0.05746084","-0.1436521","9.902418","lay down","1"
"1132821406727586","3","0.08619126","-0.15322891","9.931149","lay down","1"
"1132821426749461","3","0.24899697","-0.1340753","9.931149","lay down","1"
"1132821446740086","3","0.20111294","-0.15322891","9.9790325","lay down","1"
"1132821466730711","3","0.1436521","-0.12449849","9.950302","lay down","1"
"1132821486752586","3","0.0","-0.16280572","9.873688","lay down","1"
"1132821506760399","3","-0.009576807","-0.095768064","9.816227","lay down","1"
"1132821526735399","3","0.009576807","-0.17238252","9.787497","lay down","1"
"1132821546726024","3","-0.12449849","-0.17238252","9.844957","lay down","1"
"1132821566747899","3","-0.038307227","-0.11492168","9.864111","lay down","1"
"1132821586738524","3","0.076614454","-0.11492168","9.873688","lay down","1"
"1132821606729149","3","0.08619126","-0.095768064","9.892841","lay down","1"
"1132821626752586","3","0.10534488","-0.15322891","9.854534","lay down","1"
"1132821646743211","3","0.10534488","-0.10534488","9.883265","lay down","1"
"1132821666733836","3","0.08619126","-0.1340753","9.844957","lay down","1"
"1132821686724461","3","0.1436521","-0.12449849","9.911995","lay down","1"
"1132821706746336","3","0.2873042","-0.10534488","9.931149","lay down","1"
"1132821726738524","3","0.23942018","-0.1436521","10.04607","lay down","1"
"1132821746729149","3","0.32561144","-0.06703765","10.04607","lay down","1"
"1132821766751024","3","0.29688102","-0.038307227","9.998186","lay down","1"
"1132821786741649","3","0.20111294","-0.02873042","10.01734","lay down","1"
"1132821806732274","3","0.2873042","-0.038307227","10.01734","lay down","1"
"1132821826755711","3","0.4405331","-0.047884032","9.931149","lay down","1"
"1132821846746336","3","0.12449849","-0.06703765","9.873688","lay down","1"
"1132821866736961","3","0.009576807","-0.12449849","9.80665","lay down","1"
"1132821886727586","3","-0.095768064","-0.1340753","9.768343","lay down","1"
"1132821906751024","3","-0.33518824","-0.16280572","9.844957","lay down","1"
"1132821926740086","3","-0.17238252","-0.25857377","9.864111","lay down","1"
"1132821946732274","3","-0.17238252","-0.2777274","9.816227","lay down","1"
"1132821966754149","3","-0.19153613","-0.19153613","9.816227","lay down","1"
"1132821986746336","3","-0.25857377","-0.15322891","9.768343","lay down","1"
"1132822006735399","3","-0.11492168","-0.20111294","9.787497","lay down","1"
"1132822026727586","3","0.019153614","-0.16280572","9.844957","lay down","1"
"1132822046749461","3","0.076614454","-0.22026655","9.940725","lay down","1"
"1132822066740086","3","0.38307226","-0.50757074","9.969456","lay down","1"
"1132822086730711","3","0.39264908","0.0","10.132261","lay down","1"
"1132822106754149","3","0.08619126","-0.37349546","10.0269165","lay down","1"
"1132822126744774","3","0.06703765","0.6799533","10.342952","lay down","1"
"1132822146735399","3","0.076614454","0.0","9.471462","lay down","1"
"1132822166726024","3","0.5363012","-0.35434186","10.1226845","lay down","1"
"1132822186747899","3","0.038307227","-0.038307227","10.103531","lay down","1"
"1132822206755711","3","0.019153614","-0.1340753","9.816227","lay down","1"
"1132822226730711","3","0.06703765","-0.19153613","9.931149","lay down","1"
"1132822246752586","3","-0.25857377","-0.1436521","9.864111","lay down","1"
"1132822266743211","3","-0.08619126","-0.22984336","9.739613","lay down","1"
"1132822286733836","3","-0.06703765","-0.095768064","9.883265","lay down","1"
"1132822306726024","3","0.02873042","-0.12449849","9.950302","lay down","1"
"1132822326746336","3","-0.06703765","-0.12449849","9.892841","lay down","1"
"1132822346738524","3","-0.10534488","-0.21068975","9.883265","lay down","1"
"1132822366729149","3","0.019153614","-0.1340753","9.950302","lay down","1"
"1132822386751024","3","0.0","0.0","9.921572","lay down","1"
"1132822406743211","3","-0.02873042","-0.02873042","9.911995","lay down","1"
"1132822426733836","3","0.0","-0.05746084","9.902418","lay down","1"
"1132822446755711","3","-0.10534488","-0.25857377","9.902418","lay down","1"
"1132822466746336","3","-0.06703765","-0.25857377","9.883265","lay down","1"
"1132822486736961","3","0.047884032","0.15322891","10.113108","lay down","1"
"1132822506727586","3","0.08619126","-0.076614454","9.835381","lay down","1"
"1132822526751024","3","0.009576807","-0.08619126","10.036493","lay down","1"
"1132822546741649","3","0.12449849","-0.16280572","9.911995","lay down","1"
"1132822566732274","3","-0.038307227","-0.11492168","9.892841","lay down","1"
"1132822586754149","3","-0.1436521","-0.11492168","9.950302","lay down","1"
"1132822606746336","3","-0.1340753","-0.12449849","9.854534","lay down","1"
"1132822626735399","3","0.0","-0.11492168","9.816227","lay down","1"
"1132822646727586","3","-0.10534488","-0.12449849","9.902418","lay down","1"
"1132822666749461","3","0.05746084","-0.1340753","9.921572","lay down","1"
"1132822686740086","3","0.06703765","-0.15322891","9.911995","lay down","1"
"1132822706730711","3","0.095768064","-0.16280572","9.998186","lay down","1"
"1132822726754149","3","0.08619126","-0.16280572","9.921572","lay down","1"
"1132822746744774","3","0.0","-0.18195933","9.931149","lay down","1"
"1132822766735399","3","0.038307227","-0.1340753","9.931149","lay down","1"
"1132822786726024","3","0.009576807","-0.1436521","9.873688","lay down","1"
"1132822806747899","3","-0.02873042","-0.1436521","9.883265","lay down","1"
"1132822826738524","3","-0.038307227","-0.10534488","9.902418","lay down","1"
"1132822846730711","3","-0.05746084","-0.11492168","9.854534","lay down","1"
"1132822866752586","3","-0.02873042","-0.12449849","9.883265","lay down","1"
"1132822886743211","3","0.009576807","-0.10534488","9.911995","lay down","1"
"1132822906751024","3","0.02873042","-0.12449849","9.873688","lay down","1"
"1132822926726024","3","0.02873042","-0.11492168","9.902418","lay down","1"
"1132822946747899","3","0.02873042","-0.1436521","9.902418","lay down","1"
"1132822966738524","3","0.009576807","-0.10534488","9.902418","lay down","1"
"1132822986729149","3","0.0","-0.10534488","9.902418","lay down","1"
"1132823006752586","3","0.0","-0.11492168","9.883265","lay down","1"
"1132823026743211","3","0.009576807","-0.10534488","9.902418","lay down","1"
"1132823046733836","3","0.0","-0.095768064","9.902418","lay down","1"
"1132823066755711","3","0.0","-0.11492168","9.883265","lay down","1"
"1132823086746336","3","0.0","-0.12449849","9.931149","lay down","1"
"1132823106736961","3","0.019153614","-0.12449849","9.911995","lay down","1"
"1132823126729149","3","0.02873042","-0.15322891","9.940725","lay down","1"
"1132823146751024","3","0.02873042","-0.12449849","9.921572","lay down","1"
"1132823166741649","3","0.02873042","-0.15322891","9.931149","lay down","1"
"1132823186732274","3","0.009576807","-0.12449849","9.931149","lay down","1"
"1132823206754149","3","0.02873042","-0.12449849","9.902418","lay down","1"
"1132823226744774","3","0.019153614","-0.11492168","9.931149","lay down","1"
"1132823246736961","3","0.02873042","-0.12449849","9.931149","lay down","1"
"1132823266727586","3","0.009576807","-0.11492168","9.902418","lay down","1"
"1132823286749461","3","0.0","-0.12449849","9.911995","lay down","1"
"1132823306740086","3","0.0","-0.1436521","9.902418","lay down","1"
"1132823326732274","3","0.009576807","-0.11492168","9.921572","lay down","1"
"1132823346754149","3","0.0","-0.1340753","9.911995","lay down","1"
"1132823366744774","3","0.009576807","-0.11492168","9.892841","lay down","1"
"1132823386735399","3","0.0","-0.12449849","9.911995","lay down","1"
"1132823406726024","3","0.009576807","-0.12449849","9.883265","lay down","1"
"1132823426749461","3","0.009576807","-0.11492168","9.902418","lay down","1"
"1132823446740086","3","0.0","-0.1436521","9.892841","lay down","1"
"1132823466730711","3","0.0","-0.1340753","9.902418","lay down","1"
"1132823486752586","3","0.009576807","-0.12449849","9.902418","lay down","1"
"1132823506744774","3","0.0","-0.1340753","9.892841","lay down","1"
"1132823526733836","3","0.0","-0.1340753","9.911995","lay down","1"
"1132823546726024","3","0.0","-0.1340753","9.902418","lay down","1"
"1132823566747899","3","0.0","-0.12449849","9.921572","lay down","1"
"1132823586738524","3","0.0","-0.11492168","9.892841","lay down","1"
"1132823606744774","3","0.009576807","-0.12449849","9.921572","lay down","1"
"1132823626751024","3","0.0","-0.12449849","9.911995","lay down","1"
"1132823646743211","3","0.019153614","-0.1436521","9.883265","lay down","1"
"1132823666733836","3","0.0","-0.11492168","9.921572","lay down","1"
"1132823686755711","3","0.009576807","-0.11492168","9.902418","lay down","1"
"1132823706746336","3","0.019153614","-0.12449849","9.911995","lay down","1"
"1132823726736961","3","0.009576807","-0.12449849","9.902418","lay down","1"
"1132823746729149","3","0.0","-0.11492168","9.931149","lay down","1"
"1132823766751024","3","0.009576807","-0.1340753","9.921572","lay down","1"
"1132823786741649","3","0.019153614","-0.12449849","9.892841","lay down","1"
"1132823806732274","3","0.009576807","-0.11492168","9.911995","lay down","1"
"1132823826754149","3","0.0","-0.12449849","9.921572","lay down","1"
"1132823846746336","3","0.0","-0.10534488","9.931149","lay down","1"
"1132823866736961","3","0.019153614","-0.1436521","9.892841","lay down","1"
"1132823886727586","3","0.0","-0.10534488","9.902418","lay down","1"
"1132823906749461","3","0.009576807","-0.11492168","9.902418","lay down","1"
"1132823926740086","3","0.009576807","-0.12449849","9.911995","lay down","1"
"1132823946732274","3","0.009576807","-0.12449849","9.883265","lay down","1"
"1132823966754149","3","0.0","-0.12449849","9.921572","lay down","1"
"1132823986744774","3","0.0","-0.12449849","9.911995","lay down","1"
"1132824006735399","3","0.0","-0.1436521","9.892841","lay down","1"
"1132824026726024","3","0.009576807","-0.1340753","9.892841","lay down","1"
"1132824046749461","3","0.009576807","-0.10534488","9.911995","lay down","1"
"1132824066740086","3","0.009576807","-0.1340753","9.902418","lay down","1"
"1132824086730711","3","0.02873042","-0.12449849","9.911995","lay down","1"
"1132824106752586","3","0.009576807","-0.12449849","9.892841","lay down","1"
"1132824126744774","3","0.009576807","-0.11492168","9.902418","lay down","1"
"1132824146735399","3","0.019153614","-0.11492168","9.892841","lay down","1"
"1132824166726024","3","0.019153614","-0.1436521","9.911995","lay down","1"
"1132824186747899","3","0.0","-0.12449849","9.883265","lay down","1"
"1132824206738524","3","0.019153614","-0.12449849","9.892841","lay down","1"
"1132824226730711","3","0.019153614","-0.1436521","9.940725","lay down","1"
"1132824246751024","3","0.019153614","-0.1340753","9.902418","lay down","1"
"1132824266743211","3","0.009576807","-0.12449849","9.892841","lay down","1"
"1132824286733836","3","0.009576807","-0.1436521","9.902418","lay down","1"
"1132824306741649","3","0.019153614","-0.12449849","9.931149","lay down","1"
"1132824326747899","3","0.009576807","-0.1340753","9.883265","lay down","1"
"1132824346736961","3","0.0","-0.12449849","9.911995","lay down","1"
"1132824366729149","3","0.0","-0.12449849","9.892841","lay down","1"
"1132824386751024","3","0.019153614","-0.11492168","9.902418","lay down","1"
"1132824406741649","3","0.009576807","-0.1436521","9.921572","lay down","1"
"1132824426732274","3","0.0","-0.1436521","9.911995","lay down","1"
"1132824446754149","3","0.0","-0.1436521","9.902418","sit up","1"
"1132824466746336","3","0.0","-0.11492168","9.892841","sit up","1"
"1132824486736961","3","0.0","-0.11492168","9.902418","sit up","1"
"1132824506727586","3","0.009576807","-0.12449849","9.902418","sit up","1"
"1132824526749461","3","0.02873042","-0.10534488","9.883265","sit up","1"
"1132824546740086","3","0.02873042","-0.15322891","9.911995","sit up","1"
