"Timestamp","Accuracy","Acceleration X","Acceleration Y","Acceleration Z","Label","Cycle"
"1133369263744774","3","-0.047884032","-0.1436521","10.228029","none","0"
"1133369283735399","3","-0.038307227","-0.12449849","9.959879","none","0"
"1133369303726024","3","-0.02873042","-0.10534488","9.959879","none","0"
"1133369323747899","3","0.0","-0.095768064","9.921572","none","0"
"1133369343738524","3","-0.02873042","-0.11492168","9.959879","none","0"
"1133369363730711","3","-0.02873042","-0.11492168","9.892841","none","0"
"1133369383751024","3","-0.02873042","-0.1436521","9.959879","none","0"
"1133369403741649","3","-0.047884032","-0.10534488","9.931149","none","0"
"1133369423732274","3","-0.05746084","-0.1340753","9.969456","none","0"
"1133369443754149","3","-0.02873042","-0.16280572","9.911995","none","0"
"1133369463761961","3","-0.019153614","-0.12449849","9.911995","none","0"
"1133369483736961","3","-0.02873042","-0.15322891","9.940725","none","0"
"1133369503727586","3","-0.019153614","-0.10534488","9.921572","none","0"
"1133369523749461","3","-0.019153614","-0.10534488","9.940725","none","0"
"1133369543740086","3","-0.02873042","-0.11492168","9.921572","none","0"
"1133369563730711","3","-0.019153614","-0.1436521","9.931149","none","0"
"1133369583754149","3","-0.02873042","-0.12449849","9.921572","none","0"
"1133369603744774","3","-0.019153614","-0.1340753","9.921572","none","0"
"1133369623735399","3","-0.038307227","-0.11492168","9.921572","none","0"
"1133369643726024","3","-0.047884032","-0.10534488","9.921572","none","0"
"1133369663747899","3","-0.02873042","-0.12449849","9.921572","none","0"
"1133369683738524","3","-0.019153614","-0.11492168","9.940725","none","0"
"1133369703730711","3","-0.019153614","-0.10534488","9.931149","none","0"
"1133369723752586","3","-0.009576807","-0.10534488","9.940725","none","0"
"1133369743743211","3","-0.038307227","-0.1340753","9.902418","none","0"
"1133369763733836","3","-0.02873042","-0.11492168","9.931149","none","0"
"1133369783726024","3","-0.02873042","-0.10534488","9.931149","none","0"
"1133369803747899","3","-0.038307227","-0.12449849","9.921572","none","0"
"1133369823738524","3","-0.009576807","-0.12449849","9.940725","none","0"
"1133369843729149","3","-0.02873042","-0.11492168","9.931149","none","0"
"1133369863751024","3","-0.038307227","-0.11492168","9.940725","none","0"
"1133369883743211","3","-0.05746084","-0.095768064","9.950302","none","0"
"1133369903733836","3","0.0","-0.11492168","9.911995","none","0"
"1133369923724461","3","-0.02873042","-0.10534488","9.931149","none","0"
"1133369943747899","3","-0.038307227","-0.11492168","9.988609","none","0"
"1133369963736961","3","-0.019153614","-0.12449849","9.844957","none","0"
"1133369983729149","3","-0.05746084","-0.095768064","10.04607","none","0"
"1133370003751024","3","-0.009576807","-0.1340753","9.873688","none","0"
"1133370023741649","3","-0.019153614","-0.12449849","9.9790325","none","0"
"1133370043732274","3","-0.047884032","-0.11492168","9.911995","none","0"
"1133370063754149","3","-0.019153614","-0.12449849","9.950302","none","0"
"1133370083746336","3","-0.019153614","-0.12449849","9.911995","none","0"
"1133370103736961","3","-0.038307227","-0.12449849","9.959879","none","0"
"1133370123727586","3","-0.019153614","-0.11492168","9.921572","none","0"
"1133370143749461","3","-0.038307227","-0.10534488","9.940725","none","0"
"1133370163757274","3","-0.05746084","-0.11492168","9.940725","none","0"
"1133370183732274","3","-0.02873042","-0.12449849","9.931149","none","0"
"1133370203754149","3","-0.038307227","-0.10534488","9.940725","none","0"
"1133370223744774","3","-0.019153614","-0.10534488","9.931149","none","0"
"1133370243735399","3","-0.038307227","-0.12449849","9.911995","none","0"
"1133370263726024","3","-0.009576807","-0.12449849","9.931149","none","0"
"1133370283749461","3","-0.019153614","-0.12449849","9.940725","none","0"
"1133370303738524","3","-0.009576807","-0.11492168","9.911995","none","0"
"1133370323730711","3","-0.02873042","-0.10534488","9.959879","none","0"
"1133370343752586","3","-0.02873042","-0.11492168","9.911995","none","0"
"1133370363744774","3","-0.009576807","-0.1436521","9.931149","none","0"
"1133370383733836","3","-0.02873042","-0.12449849","9.921572","none","0"
"1133370403726024","3","-0.019153614","-0.12449849","9.940725","none","0"
"1133370423747899","3","-0.019153614","-0.11492168","9.921572","none","0"
"1133370443738524","3","-0.019153614","-0.1340753","9.931149","none","0"
"1133370463729149","3","-0.02873042","-0.10534488","9.940725","none","0"
"1133370483752586","3","-0.047884032","-0.1340753","9.931149","none","0"
"1133370503743211","3","-0.009576807","-0.12449849","9.911995","none","0"
"1133370523733836","3","-0.02873042","-0.11492168","9.969456","none","0"
"1133370543724461","3","-0.02873042","-0.1340753","9.911995","none","0"
"1133370563746336","3","-0.019153614","-0.11492168","9.959879","none","0"
"1133370583738524","3","-0.02873042","-0.095768064","9.950302","none","0"
"1133370603729149","3","-0.047884032","-0.10534488","9.931149","none","0"
"1133370623751024","3","-0.02873042","-0.095768064","9.940725","none","0"
"1133370643741649","3","-0.019153614","-0.11492168","9.940725","none","0"
"1133370663733836","3","0.0","-0.10534488","9.911995","none","0"
"1133370683755711","3","-0.02873042","-0.11492168","9.959879","none","0"
"1133370703746336","3","-0.019153614","-0.10534488","9.940725","none","0"
"1133370723736961","3","-0.038307227","-0.10534488","9.969456","none","0"
"1133370743727586","3","-0.009576807","-0.1340753","9.902418","none","0"
"1133370763749461","3","-0.02873042","-0.1340753","9.921572","none","0"
"1133370783741649","3","-0.038307227","-0.10534488","9.931149","none","0"
"1133370803732274","3","0.0","-0.1340753","9.921572","none","0"
"1133370823754149","3","0.0","-0.12449849","9.911995","none","0"
"1133370843744774","3","-0.076614454","-0.11492168","9.9790325","none","0"
"1133370863752586","3","-0.02873042","-0.11492168","9.940725","none","0"
"1133370883727586","3","0.0","-0.11492168","9.911995","none","0"
"1133370903749461","3","-0.038307227","-0.10534488","9.9790325","none","0"
"1133370923740086","3","0.0","-0.11492168","9.902418","none","0"
"1133370943730711","3","-0.019153614","-0.10534488","9.950302","none","0"
"1133370963754149","3","-0.047884032","-0.12449849","9.892841","none","0"
"1133370983744774","3","-0.009576807","-0.12449849","9.969456","none","0"
"1133371003735399","3","-0.019153614","-0.12449849","9.940725","none","0"
"1133371023726024","3","-0.02873042","-0.1340753","9.940725","none","0"
"1133371043747899","3","-0.009576807","-0.1436521","9.931149","none","0"
"1133371063738524","3","-0.009576807","-0.12449849","9.931149","none","0"
"1133371083730711","3","-0.019153614","-0.11492168","9.950302","none","0"
"1133371103752586","3","-0.02873042","-0.10534488","9.931149","none","0"
"1133371123743211","3","-0.019153614","-0.12449849","9.911995","none","0"
"1133371143733836","3","-0.02873042","-0.12449849","9.921572","none","0"
"1133371163724461","3","-0.047884032","-0.12449849","9.959879","none","0"
"1133371183747899","3","0.0","-0.12449849","9.931149","none","0"
"1133371203738524","3","0.0","-0.1340753","9.892841","none","0"
"1133371223729149","3","-0.05746084","-0.1340753","9.998186","none","0"
"1133371243751024","3","0.0","-0.12449849","9.883265","none","0"
"1133371263741649","3","-0.019153614","-0.11492168","9.950302","none","0"
"1133371283733836","3","-0.038307227","-0.10534488","9.959879","none","0"
"1133371303755711","3","-0.047884032","-0.10534488","9.873688","none","0"
"1133371323746336","3","-0.009576807","-0.11492168","10.0269165","none","0"
"1133371343736961","3","0.0","-0.1340753","9.921572","none","0"
"1133371363727586","3","-0.038307227","-0.11492168","9.959879","none","0"
"1133371383749461","3","-0.02873042","-0.11492168","9.921572","none","0"
"1133371403741649","3","-0.009576807","-0.1436521","9.921572","none","0"
"1133371423732274","3","-0.019153614","-0.11492168","9.959879","none","0"
"1133371443754149","3","-0.038307227","-0.10534488","9.950302","none","0"
"1133371463744774","3","-0.009576807","-0.1340753","9.911995","none","0"
"1133371483736961","3","-0.02873042","-0.12449849","9.950302","none","0"
"1133371503727586","3","-0.02873042","-0.11492168","9.921572","none","0"
"1133371523749461","3","-0.019153614","-0.11492168","9.969456","none","0"
"1133371543740086","3","-0.019153614","-0.1340753","9.931149","none","0"
"1133371563747899","3","-0.02873042","-0.12449849","9.940725","none","0"
"1133371583754149","3","-0.019153614","-0.1340753","9.931149","none","0"
"1133371603744774","3","0.0","-0.1340753","9.940725","none","0"
"1133371623735399","3","-0.009576807","-0.15322891","9.911995","none","0"
"1133371643726024","3","-0.009576807","-0.12449849","9.921572","none","0"
"1133371663747899","3","0.0","-0.12449849","9.921572","none","0"
"1133371683738524","3","-0.02873042","-0.12449849","9.931149","none","0"
"1133371703730711","3","-0.019153614","-0.11492168","9.921572","none","0"
"1133371723752586","3","0.0","-0.15322891","9.921572","none","0"
"1133371743743211","3","-0.019153614","-0.1340753","9.921572","none","0"
"1133371763733836","3","0.0","-0.1436521","9.931149","none","0"
"1133371783724461","3","0.0","-0.1340753","9.921572","none","0"
"1133371803747899","3","-0.009576807","-0.12449849","9.931149","none","0"
"1133371823738524","3","-0.02873042","-0.11492168","9.940725","none","0"
"1133371843729149","3","-0.038307227","-0.10534488","9.988609","none","0"
"1133371863752586","3","-0.009576807","-0.12449849","9.854534","none","0"
"1133371883741649","3","-0.019153614","-0.10534488","9.950302","none","0"
"1133371903733836","3","-0.038307227","-0.12449849","9.940725","none","0"
"1133371923724461","3","-0.009576807","-0.1436521","9.921572","none","0"
"1133371943746336","3","0.0","-0.10534488","9.921572","none","0"
"1133371963736961","3","-0.019153614","-0.11492168","9.911995","none","0"
"1133371983729149","3","-0.019153614","-0.10534488","9.892841","none","0"
"1133372003751024","3","-0.009576807","-0.11492168","9.911995","none","0"
"1133372023741649","3","0.0","-0.1340753","9.921572","none","0"
"1133372043732274","3","-0.02873042","-0.11492168","9.959879","none","0"
"1133372063754149","3","-0.02873042","-0.10534488","9.911995","none","0"
"1133372083744774","3","-0.009576807","-0.1340753","9.940725","none","0"
"1133372103736961","3","-0.019153614","-0.12449849","9.911995","none","0"
"1133372123727586","3","-0.038307227","-0.11492168","9.950302","none","0"
"1133372143749461","3","-0.02873042","-0.11492168","9.921572","none","0"
"1133372163740086","3","-0.02873042","-0.10534488","9.959879","none","0"
"1133372183730711","3","-0.009576807","-0.1340753","9.911995","none","0"
"1133372203754149","3","-0.02873042","-0.12449849","9.950302","none","0"
"1133372223744774","3","-0.047884032","-0.12449849","9.940725","none","0"
"1133372243735399","3","0.0","-0.12449849","9.931149","none","0"
"1133372263743211","3","-0.009576807","-0.10534488","9.921572","none","0"
"1133372283747899","3","-0.05746084","-0.12449849","9.9790325","none","0"
"1133372303740086","3","-0.02873042","-0.12449849","9.911995","none","0"
"1133372323730711","3","0.0","-0.095768064","9.940725","none","0"
"1133372343752586","3","-0.038307227","-0.10534488","9.9790325","none","0"
"1133372363743211","3","-0.02873042","-0.10534488","9.959879","none","0"
"1133372383733836","3","-0.019153614","-0.10534488","9.950302","none","0"
"1133372403726024","3","-0.038307227","-0.12449849","9.969456","none","0"
"1133372423747899","3","-0.019153614","-0.11492168","9.940725","none","0"
"1133372443738524","3","-0.019153614","-0.10534488","9.940725","none","0"
"1133372463729149","3","-0.05746084","-0.12449849","9.959879","none","0"
"1133372483752586","3","-0.047884032","-0.11492168","9.931149","none","0"
"1133372503743211","3","-0.02873042","-0.095768064","9.931149","none","0"
"1133372523733836","3","0.0","-0.11492168","9.911995","none","0"
"1133372543724461","3","-0.05746084","-0.10534488","9.959879","none","0"
"1133372563746336","3","-0.009576807","-0.11492168","9.931149","none","0"
"1133372583736961","3","-0.009576807","-0.11492168","9.902418","none","0"
"1133372603729149","3","-0.047884032","-0.11492168","9.940725","none","0"
"1133372623751024","3","0.0","-0.11492168","9.911995","none","0"
"1133372643741649","3","-0.08619126","-0.095768064","9.998186","none","0"
"1133372663732274","3","-0.02873042","-0.1436521","9.950302","none","0"
"1133372683755711","3","0.009576807","-0.12449849","9.883265","none","0"
"1133372703746336","3","-0.05746084","-0.10534488","9.988609","none","0"
"1133372723736961","3","-0.047884032","-0.11492168","9.911995","none","0"
"1133372743727586","3","0.0","-0.10534488","9.931149","none","0"
"1133372763749461","3","-0.038307227","-0.10534488","9.931149","none","0"
"1133372783740086","3","-0.019153614","-0.12449849","9.950302","none","0"
"1133372803730711","3","-0.009576807","-0.095768064","9.931149","none","0"
"1133372823754149","3","-0.02873042","-0.08619126","9.921572","none","0"
"1133372843744774","3","-0.05746084","-0.12449849","9.959879","none","0"
"1133372863735399","3","-0.019153614","-0.10534488","9.921572","none","0"
"1133372883726024","3","-0.047884032","-0.11492168","9.940725","none","0"
"1133372903749461","3","-0.038307227","-0.11492168","9.950302","none","0"
"1133372923740086","3","-0.019153614","-0.12449849","9.940725","none","0"
"1133372943730711","3","-0.009576807","-0.1436521","9.959879","none","0"
"1133372963769774","3","-0.047884032","-0.12449849","9.940725","none","0"
"1133372983743211","3","0.0","-0.11492168","9.931149","none","0"
"1133373003733836","3","-0.02873042","-0.11492168","9.931149","none","0"
"1133373023726024","3","-0.038307227","-0.10534488","9.950302","none","0"
"1133373043747899","3","-0.019153614","-0.12449849","9.940725","none","0"
"1133373063738524","3","-0.02873042","-0.11492168","9.921572","none","0"
"1133373083730711","3","-0.009576807","-0.12449849","9.940725","none","0"
"1133373103752586","3","-0.019153614","-0.1340753","9.931149","none","0"
"1133373123743211","3","-0.019153614","-0.1340753","9.931149","none","0"
"1133373143733836","3","-0.02873042","-0.1340753","9.950302","none","0"
"1133373163724461","3","-0.009576807","-0.12449849","9.911995","none","0"
"1133373183746336","3","-0.009576807","-0.12449849","9.931149","none","0"
"1133373203736961","3","-0.02873042","-0.11492168","9.950302","none","0"
"1133373223729149","3","-0.019153614","-0.12449849","9.921572","sit down","0"
"1133373243751024","3","-0.02873042","-0.12449849","9.931149","sit down","0"
"1133373263741649","3","-0.019153614","-0.12449849","9.950302","sit down","0"
"1133373283732274","3","-0.019153614","-0.11492168","9.940725","sit down","0"
"1133373303755711","3","-0.009576807","-0.12449849","9.911995","sit down","0"
"1133373323746336","3","-0.02873042","-0.12449849","9.921572","sit down","0"
"1133373343736961","3","-0.019153614","-0.1436521","9.940725","sit down","0"
"1133373363727586","3","-0.009576807","-0.1436521","9.950302","sit down","0"
"1133373383749461","3","-0.038307227","-0.10534488","9.931149","sit down","0"
"1133373403740086","3","-0.02873042","-0.1340753","9.998186","sit down","0"
"1133373423732274","3","-0.019153614","-0.15322891","10.01734","sit down","0"
"1133373443754149","3","-0.019153614","-0.17238252","10.0748005","sit down","0"
"1133373463744774","3","-0.02873042","-0.16280572","10.007763","sit down","0"
"1133373483735399","3","-0.047884032","-0.12449849","9.864111","sit down","0"
"1133373503726024","3","-0.019153614","-0.1436521","9.864111","sit down","0"
"1133373523749461","3","-0.038307227","-0.11492168","10.007763","sit down","0"
"1133373543740086","3","-0.009576807","-0.1436521","9.969456","sit down","0"
"1133373563730711","3","-0.019153614","-0.1340753","9.931149","sit down","0"
"1133373583752586","3","-0.02873042","-0.1340753","9.950302","sit down","0"
"1133373603743211","3","-0.019153614","-0.1340753","9.940725","sit down","0"
"1133373623735399","3","-0.038307227","-0.11492168","9.921572","sit down","0"
"1133373643726024","3","-0.019153614","-0.1436521","9.931149","sit down","0"
"1133373663765086","3","-0.038307227","-0.12449849","9.940725","sit down","0"
"1133373683738524","3","-0.009576807","-0.1436521","9.911995","sit down","0"
"1133373703730711","3","-0.009576807","-0.11492168","9.931149","sit down","0"
"1133373723752586","3","-0.02873042","-0.11492168","9.940725","sit down","0"
"1133373743743211","3","-0.02873042","-0.11492168","9.940725","sit down","0"
"1133373763733836","3","-0.009576807","-0.11492168","9.931149","sit down","0"
"1133373783724461","3","-0.019153614","-0.1340753","9.959879","sit down","0"
"1133373803746336","3","0.0","-0.12449849","9.911995","sit down","0"
"1133373823738524","3","-0.019153614","-0.11492168","9.950302","sit down","0"
"1133373843729149","3","-0.009576807","-0.1340753","9.950302","sit down","0"
"1133373863751024","3","-0.02873042","-0.12449849","9.940725","sit down","0"
"1133373883741649","3","-0.019153614","-0.1340753","9.902418","sit down","0"
"1133373903732274","3","-0.019153614","-0.1340753","9.959879","sit down","0"
"1133373923755711","3","-0.009576807","-0.11492168","9.921572","sit down","0"
"1133373943746336","3","-0.009576807","-0.12449849","9.931149","sit down","0"
"1133373963736961","3","-0.02873042","-0.10534488","9.931149","sit down","0"
"1133373983727586","3","-0.019153614","-0.12449849","9.902418","sit down","0"
"1133374003751024","3","-0.02873042","-0.10534488","9.921572","sit down","0"
"1133374023741649","3","-0.05746084","-0.10534488","9.940725","sit down","0"
"1133374043732274","3","0.0","-0.1340753","9.911995","sit down","0"
"1133374063754149","3","-0.05746084","-0.12449849","9.998186","sit down","0"
"1133374083744774","3","-0.038307227","-0.12449849","9.931149","sit down","0"
"1133374103735399","3","0.019153614","-0.095768064","9.883265","sit down","0"
"1133374123727586","3","-0.047884032","-0.11492168","9.959879","sit down","0"
"1133374143749461","3","-0.06703765","-0.1340753","9.921572","sit down","0"
"1133374163740086","3","0.009576807","-0.12449849","9.883265","sit down","0"
"1133374183730711","3","-0.038307227","-0.11492168","9.950302","sit down","0"
"1133374203752586","3","-0.038307227","-0.11492168","9.9790325","sit down","0"
"1133374223744774","3","-0.019153614","-0.11492168","9.892841","sit down","0"
"1133374243735399","3","-0.038307227","-0.095768064","9.969456","sit down","0"
"1133374263726024","3","-0.009576807","-0.11492168","9.931149","sit down","0"
"1133374283749461","3","-0.05746084","-0.10534488","9.950302","sit down","0"
"1133374303738524","3","-0.06703765","-0.12449849","9.940725","sit down","0"
"1133374323730711","3","0.02873042","-0.1340753","9.892841","sit down","0"
"1133374343752586","3","-0.08619126","-0.1340753","9.931149","sit down","0"
"1133374363760399","3","-0.18195933","-0.1340753","9.969456","sit down","0"
"1133374383733836","3","-0.047884032","-0.1436521","9.854534","sit down","0"
"1133374403724461","3","0.047884032","-0.095768064","9.9790325","sit down","0"
"1133374423747899","3","0.2681506","-0.1340753","10.055647","sit down","0"
"1133374443738524","3","0.047884032","-0.17238252","10.0748005","sit down","0"
"1133374463729149","3","0.02873042","-0.1436521","10.199299","sit down","0"
"1133374483751024","3","0.2681506","-0.2681506","10.314221","sit down","0"
"1133374503741649","3","0.18195933","-0.21068975","10.496181","sit down","0"
"1133374523733836","3","0.33518824","-0.32561144","9.844957","sit down","0"
"1133374543755711","3","0.21068975","-0.21068975","9.289502","sit down","0"
"1133374563746336","3","-0.019153614","0.019153614","9.519346","sit down","0"
"1133374583736961","3","-0.15322891","0.009576807","10.01734","sit down","0"
"1133374603727586","3","-0.02873042","-0.11492168","10.055647","sit down","0"
"1133374623751024","3","-0.22026655","-0.11492168","9.710882","sit down","0"
"1133374643741649","3","-0.30645782","-0.08619126","9.615114","sit down","0"
"1133374663732274","3","-0.24899697","-0.02873042","9.883265","sit down","0"
"1133374683754149","3","-0.15322891","-0.076614454","9.940725","sit down","0"
"1133374703744774","3","-0.15322891","-0.047884032","9.844957","sit down","0"
"1133374723735399","3","-0.23942018","-0.11492168","9.835381","sit down","0"
"1133374743727586","3","-0.019153614","-0.038307227","9.825804","sit down","0"
"1133374763749461","3","0.038307227","-0.06703765","9.921572","sit down","0"
"1133374783740086","3","0.038307227","-0.08619126","9.998186","sit down","0"
"1133374803730711","3","0.095768064","-0.095768064","10.036493","sit down","0"
"1133374823754149","3","0.1340753","-0.11492168","10.0269165","sit down","0"
"1133374843744774","3","0.11492168","-0.076614454","10.036493","sit down","0"
"1133374863735399","3","0.12449849","-0.095768064","10.036493","sit down","0"
"1133374883726024","3","0.1340753","-0.12449849","10.01734","sit down","0"
"1133374903747899","3","0.06703765","-0.08619126","9.959879","sit down","0"
"1133374923740086","3","0.06703765","-0.08619126","9.950302","sit down","0"
"1133374943730711","3","0.076614454","-0.10534488","10.01734","sit down","0"
"1133374963752586","3","0.10534488","-0.11492168","10.007763","sit down","0"
"1133374983743211","3","0.12449849","-0.11492168","10.007763","sit down","0"
"1133375003733836","3","0.095768064","-0.11492168","10.007763","sit down","0"
"1133375023726024","3","0.12449849","-0.095768064","9.988609","sit down","0"
"1133375043747899","3","0.08619126","-0.11492168","9.940725","sit down","0"
"1133375063754149","3","0.02873042","-0.08619126","9.921572","sit down","0"
"1133375083729149","3","0.009576807","-0.076614454","9.883265","sit down","0"
"1133375103751024","3","0.0","-0.095768064","9.854534","sit down","0"
"1133375123743211","3","-0.05746084","-0.076614454","9.883265","sit down","0"
"1133375143733836","3","-0.08619126","-0.06703765","9.911995","sit down","0"
"1133375163724461","3","-0.02873042","-0.08619126","9.787497","sit down","0"
"1133375183746336","3","-0.11492168","-0.06703765","9.950302","sit down","0"
"1133375203736961","3","-0.038307227","-0.038307227","9.950302","sit down","0"
"1133375223727586","3","-0.02873042","-0.05746084","9.77792","sit down","0"
"1133375243751024","3","-0.009576807","-0.06703765","9.931149","sit down","0"
"1133375263741649","3","0.019153614","-0.06703765","9.892841","sit down","0"
"1133375283732274","3","0.076614454","-0.095768064","9.902418","sit down","0"
"1133375303754149","3","0.05746084","-0.076614454","10.007763","sit down","0"
"1133375323746336","3","0.1340753","-0.095768064","9.998186","sit down","0"
"1133375343735399","3","0.11492168","-0.08619126","9.950302","sit down","0"
"1133375363727586","3","0.11492168","-0.10534488","9.998186","sit down","0"
"1133375383749461","3","0.1340753","-0.095768064","10.0269165","sit down","0"
"1133375403740086","3","0.10534488","-0.095768064","9.9790325","sit down","0"
"1133375423730711","3","0.11492168","-0.095768064","9.998186","sit down","0"
"1133375443754149","3","0.095768064","-0.095768064","9.931149","sit down","0"
"1133375463744774","3","0.08619126","-0.076614454","9.950302","sit down","0"
"1133375483735399","3","0.08619126","-0.08619126","9.940725","sit down","0"
"1133375503726024","3","0.076614454","-0.095768064","9.950302","sit down","0"
"1133375523749461","3","0.076614454","-0.076614454","9.931149","sit down","0"
"1133375543740086","3","0.06703765","-0.08619126","9.940725","sit down","0"
"1133375563730711","3","0.02873042","-0.06703765","9.921572","sit down","0"
"1133375583752586","3","0.019153614","-0.076614454","9.931149","sit down","0"
"1133375603744774","3","0.0","-0.06703765","9.911995","sit down","0"
"1133375623735399","3","0.019153614","-0.08619126","9.902418","sit down","0"
"1133375643726024","3","0.009576807","-0.05746084","9.911995","sit down","0"
"1133375663747899","3","0.02873042","-0.076614454","9.950302","sit down","0"
"1133375683738524","3","0.02873042","-0.076614454","9.931149","sit down","0"
"1133375703729149","3","0.047884032","-0.06703765","9.911995","sit down","0"
"1133375723751024","3","0.05746084","-0.05746084","9.931149","sit down","0"
"1133375743743211","3","0.05746084","-0.08619126","9.950302","sit down","0"
"1133375763749461","3","0.05746084","-0.076614454","9.969456","sit down","0"
"1133375783724461","3","0.08619126","-0.08619126","9.950302","sit down","0"
"1133375803746336","3","0.095768064","-0.10534488","9.921572","sit down","0"
"1133375823736961","3","0.08619126","-0.08619126","9.988609","sit down","0"
"1133375843729149","3","0.10534488","-0.08619126","9.969456","sit down","0"
"1133375863751024","3","0.06703765","-0.095768064","9.959879","sit down","0"
"1133375883741649","3","0.08619126","-0.095768064","9.969456","sit down","0"
"1133375903732274","3","0.06703765","-0.08619126","9.959879","sit down","0"
"1133375923754149","3","0.06703765","-0.08619126","9.969456","sit down","0"
"1133375943746336","3","0.05746084","-0.08619126","9.940725","sit down","0"
"1133375963736961","3","0.05746084","-0.06703765","9.940725","sit down","0"
"1133375983727586","3","0.047884032","-0.08619126","9.940725","sit down","0"
"1133376003749461","3","0.047884032","-0.06703765","9.950302","sit down","0"
"1133376023741649","3","0.047884032","-0.08619126","9.931149","sit down","0"
"1133376043732274","3","0.038307227","-0.076614454","9.940725","sit down","0"
"1133376063754149","3","0.047884032","-0.095768064","9.940725","sit down","0"
"1133376083744774","3","0.038307227","-0.076614454","9.959879","sit down","0"
"1133376103735399","3","0.05746084","-0.08619126","9.959879","sit down","0"
"1133376123726024","3","0.06703765","-0.095768064","9.950302","sit down","0"
"1133376143749461","3","0.076614454","-0.076614454","9.940725","sit down","0"
"1133376163740086","3","0.06703765","-0.08619126","9.940725","sit down","0"
"1133376183730711","3","0.076614454","-0.08619126","9.950302","sit down","0"
"1133376203752586","3","0.06703765","-0.095768064","9.931149","sit down","0"
"1133376223743211","3","0.047884032","-0.08619126","9.969456","sit down","0"
"1133376243733836","3","0.06703765","-0.076614454","9.9790325","sit down","0"
"1133376263726024","3","0.076614454","-0.095768064","9.959879","sit down","0"
"1133376283747899","3","0.076614454","-0.11492168","9.931149","sit down","0"
"1133376303738524","3","0.076614454","-0.095768064","9.940725","sit down","0"
"1133376323729149","3","0.076614454","-0.095768064","9.988609","sit down","0"
"1133376343752586","3","0.05746084","-0.076614454","9.931149","sit down","0"
"1133376363743211","3","0.06703765","-0.076614454","9.940725","sit down","0"
"1133376383733836","3","0.038307227","-0.08619126","9.959879","sit down","0"
"1133376403724461","3","0.038307227","-0.08619126","9.940725","sit down","0"
"1133376423746336","3","0.05746084","-0.095768064","9.950302","sit down","0"
"1133376443736961","3","0.047884032","-0.08619126","9.940725","sit down","0"
"1133376463744774","3","0.05746084","-0.08619126","9.940725","sit down","0"
"1133376483751024","3","0.05746084","-0.08619126","9.950302","sit down","0"
"1133376503741649","3","0.02873042","-0.08619126","9.959879","sit down","0"
"1133376523732274","3","0.06703765","-0.08619126","9.959879","sit down","0"
"1133376543754149","3","0.05746084","-0.10534488","9.959879","sit down","0"
"1133376563746336","3","0.06703765","-0.076614454","9.940725","sit down","0"
"1133376583736961","3","0.05746084","-0.076614454","9.950302","sit down","0"
"1133376603727586","3","0.076614454","-0.08619126","9.950302","sit down","0"
"1133376623749461","3","0.076614454","-0.076614454","9.950302","sit down","0"
"1133376643741649","3","0.076614454","-0.08619126","9.950302","sit down","0"
"1133376663732274","3","0.05746084","-0.095768064","9.959879","sit down","0"
"1133376683754149","3","0.06703765","-0.08619126","9.969456","sit down","0"
"1133376703744774","3","0.05746084","-0.08619126","9.940725","sit down","0"
"1133376723735399","3","0.038307227","-0.08619126","9.969456","sit down","0"
"1133376743726024","3","0.047884032","-0.05746084","9.988609","sit down","0"
"1133376763749461","3","0.047884032","-0.06703765","9.969456","sit down","0"
"1133376783740086","3","0.047884032","-0.076614454","9.969456","sit down","0"
"1133376803730711","3","0.038307227","-0.076614454","9.950302","sit down","0"
"1133376823752586","3","0.047884032","-0.08619126","9.9790325","sit down","0"
"1133376843744774","3","0.038307227","-0.076614454","9.931149","sit down","0"
"1133376863735399","3","0.05746084","-0.076614454","9.940725","sit down","0"
"1133376883726024","3","0.019153614","-0.076614454","9.9790325","sit down","0"
"1133376903747899","3","0.06703765","-0.08619126","9.969456","sit down","0"
"1133376923738524","3","0.06703765","-0.076614454","9.969456","sit down","0"
"1133376943729149","3","0.06703765","-0.08619126","9.9790325","sit down","0"
"1133376963752586","3","0.047884032","-0.076614454","9.959879","sit down","0"
"1133376983743211","3","0.05746084","-0.08619126","9.959879","sit down","0"
"1133377003733836","3","0.05746084","-0.08619126","9.959879","sit down","0"
"1133377023724461","3","0.06703765","-0.08619126","9.969456","sit down","0"
"1133377043746336","3","0.05746084","-0.076614454","9.969456","sit down","0"
"1133377063736961","3","0.047884032","-0.06703765","9.940725","sit down","0"
"1133377083729149","3","0.05746084","-0.05746084","9.950302","sit down","0"
"1133377103751024","3","0.047884032","-0.076614454","9.9790325","sit down","0"
"1133377123741649","3","0.076614454","-0.08619126","9.959879","sit down","0"
"1133377143733836","3","0.05746084","-0.076614454","9.921572","sit down","0"
"1133377163771336","3","0.05746084","-0.08619126","9.9790325","sit down","0"
"1133377183746336","3","0.038307227","-0.08619126","9.940725","sit down","0"
"1133377203736961","3","0.05746084","-0.08619126","9.9790325","sit down","0"
"1133377223727586","3","0.05746084","-0.08619126","9.959879","lay down","0"
"1133377243751024","3","0.06703765","-0.08619126","9.931149","lay down","0"
"1133377263741649","3","0.047884032","-0.095768064","9.959879","lay down","0"
"1133377283732274","3","0.06703765","-0.08619126","9.931149","lay down","0"
"1133377303754149","3","0.038307227","-0.076614454","9.969456","lay down","0"
"1133377323744774","3","0.06703765","-0.095768064","9.959879","lay down","0"
"1133377343735399","3","0.05746084","-0.08619126","9.959879","lay down","0"
"1133377363727586","3","0.05746084","-0.095768064","9.911995","lay down","0"
"1133377383749461","3","0.038307227","-0.076614454","9.902418","lay down","0"
"1133377403740086","3","0.047884032","-0.06703765","9.959879","lay down","0"
"1133377423730711","3","0.05746084","-0.08619126","10.04607","lay down","0"
"1133377443752586","3","0.05746084","-0.12449849","10.0748005","lay down","0"
"1133377463744774","3","0.038307227","-0.10534488","10.007763","lay down","0"
"1133377483735399","3","0.019153614","-0.08619126","9.950302","lay down","0"
"1133377503726024","3","0.047884032","-0.06703765","9.950302","lay down","0"
"1133377523747899","3","0.05746084","-0.08619126","9.988609","lay down","0"
"1133377543738524","3","0.019153614","-0.047884032","9.959879","lay down","0"
"1133377563730711","3","0.047884032","-0.05746084","9.950302","lay down","0"
"1133377583752586","3","0.05746084","-0.10534488","9.9790325","lay down","0"
"1133377603743211","3","0.038307227","-0.08619126","9.940725","lay down","0"
"1133377623733836","3","0.047884032","-0.06703765","9.9790325","lay down","0"
"1133377643724461","3","0.05746084","-0.095768064","9.9790325","lay down","0"
"1133377663747899","3","0.05746084","-0.076614454","9.969456","lay down","0"
"1133377683738524","3","0.047884032","-0.06703765","9.969456","lay down","0"
"1133377703729149","3","0.05746084","-0.08619126","9.959879","lay down","0"
"1133377723751024","3","0.05746084","-0.08619126","9.950302","lay down","0"
"1133377743743211","3","0.038307227","-0.076614454","9.959879","lay down","0"
"1133377763732274","3","0.06703765","-0.08619126","9.950302","lay down","0"
"1133377783724461","3","0.076614454","-0.08619126","9.959879","lay down","0"
"1133377803746336","3","0.05746084","-0.095768064","9.959879","lay down","0"
"1133377823736961","3","0.05746084","-0.06703765","9.9790325","lay down","0"
"1133377843727586","3","0.06703765","-0.095768064","9.9790325","lay down","0"
"1133377863766649","3","0.047884032","-0.076614454","9.931149","lay down","0"
"1133377883741649","3","0.02873042","-0.047884032","9.969456","lay down","0"
"1133377903732274","3","0.047884032","-0.05746084","9.950302","lay down","0"
"1133377923754149","3","0.047884032","-0.05746084","9.9790325","lay down","0"
"1133377943746336","3","0.06703765","-0.08619126","9.988609","lay down","0"
"1133377963736961","3","0.047884032","-0.076614454","9.959879","lay down","0"
"1133377983727586","3","0.076614454","-0.095768064","9.940725","lay down","0"
"1133378003749461","3","0.095768064","-0.05746084","9.988609","lay down","0"
"1133378023740086","3","0.10534488","-0.08619126","9.9790325","lay down","0"
"1133378043730711","3","0.1340753","-0.05746084","10.0269165","lay down","0"
"1133378063754149","3","0.18195933","-0.1340753","10.01734","lay down","0"
"1133378083744774","3","0.19153613","-0.095768064","10.084377","lay down","0"
"1133378103735399","3","0.41180268","-0.095768064","10.01734","lay down","0"
"1133378123726024","3","0.33518824","-0.1436521","10.1226845","lay down","0"
"1133378143747899","3","0.21068975","-0.095768064","10.0748005","lay down","0"
"1133378163738524","3","0.16280572","0.038307227","9.940725","lay down","0"
"1133378183730711","3","0.095768064","0.009576807","9.883265","lay down","0"
"1133378203752586","3","-0.12449849","-0.11492168","9.940725","lay down","0"
"1133378223743211","3","-0.1436521","-0.08619126","9.902418","lay down","0"
"1133378243733836","3","-0.11492168","-0.06703765","9.816227","lay down","0"
"1133378263726024","3","-0.038307227","-0.10534488","9.883265","lay down","0"
"1133378283747899","3","0.0","-0.047884032","9.911995","lay down","0"
"1133378303738524","3","0.0","-0.05746084","9.940725","lay down","0"
"1133378323729149","3","0.10534488","-0.095768064","9.950302","lay down","0"
"1133378343751024","3","0.05746084","-0.08619126","9.969456","lay down","0"
"1133378363743211","3","0.08619126","-0.06703765","9.940725","lay down","0"
"1133378383733836","3","0.08619126","-0.06703765","9.902418","lay down","0"
"1133378403724461","3","0.25857377","-0.05746084","9.950302","lay down","0"
"1133378423746336","3","0.08619126","-0.08619126","10.007763","lay down","0"
"1133378443736961","3","0.05746084","-0.047884032","9.931149","lay down","0"
"1133378463729149","3","0.22984336","-0.06703765","9.911995","lay down","0"
"1133378483751024","3","0.18195933","-0.02873042","10.007763","lay down","0"
"1133378503741649","3","0.18195933","-0.009576807","10.01734","lay down","0"
"1133378523732274","3","0.32561144","-0.009576807","10.04607","lay down","0"
"1133378543754149","3","0.38307226","0.0","10.160992","lay down","0"
"1133378563761961","3","0.37349546","0.047884032","10.151415","lay down","0"
"1133378583736961","3","0.36391866","0.05746084","10.065224","lay down","0"
"1133378603727586","3","0.35434186","0.05746084","9.883265","lay down","0"
"1133378623749461","3","0.34476504","-0.095768064","9.835381","lay down","0"
"1133378643740086","3","0.0","-0.11492168","9.883265","lay down","0"
"1133378663730711","3","-0.545878","-0.11492168","9.825804","lay down","0"
"1133378683754149","3","-1.0151415","-0.22984336","9.77792","lay down","0"
"1133378703744774","3","-0.4405331","-0.10534488","9.902418","lay down","0"
"1133378723735399","3","-0.076614454","-0.047884032","9.988609","lay down","0"
"1133378743726024","3","-0.39264908","-0.08619126","9.902418","lay down","0"
"1133378763749461","3","-0.34476504","-0.24899697","9.892841","lay down","0"
"1133378783740086","3","-0.36391866","-0.22984336","9.873688","lay down","0"
"1133378803730711","3","-0.19153613","-0.095768064","9.892841","lay down","0"
"1133378823752586","3","0.25857377","-0.16280572","10.295067","lay down","0"
"1133378843743211","3","0.33518824","-0.076614454","10.01734","lay down","0"
"1133378863733836","3","0.08619126","-0.36391866","9.931149","lay down","0"
"1133378883726024","3","0.18195933","0.038307227","10.247183","lay down","0"
"1133378903747899","3","-0.047884032","0.37349546","10.036493","lay down","0"
"1133378923738524","3","0.23942018","-0.2681506","10.007763","lay down","0"
"1133378943730711","3","0.46926352","-0.1340753","10.160992","lay down","0"
"1133378963752586","3","0.16280572","-0.019153614","9.969456","lay down","0"
"1133378983743211","3","0.05746084","-0.16280572","9.9790325","lay down","0"
"1133379003733836","3","-0.009576807","-0.047884032","9.9790325","lay down","0"
"1133379023724461","3","0.02873042","-0.019153614","9.931149","lay down","0"
"1133379043746336","3","-0.02873042","-0.02873042","9.998186","lay down","0"
"1133379063736961","3","-0.095768064","0.0","10.055647","lay down","0"
"1133379083729149","3","-0.15322891","-0.038307227","9.9790325","lay down","0"
"1133379103751024","3","-0.1436521","0.009576807","9.844957","lay down","0"
"1133379123741649","3","-0.22984336","-0.047884032","9.950302","lay down","0"
"1133379143732274","3","-0.16280572","-0.038307227","9.988609","lay down","0"
"1133379163754149","3","-0.1340753","-0.009576807","9.921572","lay down","0"
"1133379183746336","3","-0.1436521","-0.02873042","9.931149","lay down","0"
"1133379203736961","3","-0.1436521","-0.038307227","9.959879","lay down","0"
"1133379223727586","3","-0.1340753","-0.08619126","10.007763","lay down","0"
"1133379243751024","3","-0.019153614","-0.17238252","9.9790325","lay down","0"
"1133379263757274","3","0.009576807","-0.2873042","9.969456","lay down","0"
"1133379283730711","3","0.05746084","0.21068975","10.180145","lay down","0"
"1133379303754149","3","0.08619126","0.22984336","9.883265","lay down","0"
"1133379323744774","3","0.20111294","0.06703765","10.084377","lay down","0"
"1133379343735399","3","0.019153614","0.1340753","10.084377","lay down","0"
"1133379363727586","3","-0.08619126","-0.019153614","9.921572","lay down","0"
"1133379383749461","3","-0.38307226","-0.22026655","10.055647","lay down","0"
"1133379403740086","3","-0.019153614","0.0","9.797073","lay down","0"
"1133379423730711","3","-0.23942018","-0.095768064","9.844957","lay down","0"
"1133379443754149","3","-0.11492168","-0.05746084","9.911995","lay down","0"
"1133379463743211","3","-0.019153614","-0.076614454","9.931149","lay down","0"
"1133379483733836","3","0.076614454","-0.1340753","10.036493","lay down","0"
"1133379503726024","3","0.019153614","-0.08619126","10.036493","lay down","0"
"1133379523747899","3","0.038307227","-0.1436521","9.998186","lay down","0"
"1133379543738524","3","0.047884032","-0.095768064","9.950302","lay down","0"
"1133379563729149","3","0.02873042","-0.10534488","9.959879","lay down","0"
"1133379583752586","3","0.076614454","-0.06703765","9.940725","lay down","0"
"1133379603743211","3","0.047884032","-0.06703765","9.9790325","lay down","0"
"1133379623733836","3","-0.038307227","-0.06703765","9.969456","lay down","0"
"1133379643724461","3","-0.038307227","-0.076614454","9.911995","lay down","0"
"1133379663746336","3","-0.038307227","-0.047884032","9.931149","lay down","0"
"1133379683736961","3","-0.038307227","-0.05746084","9.969456","lay down","0"
"1133379703729149","3","-0.02873042","-0.047884032","9.959879","lay down","0"
"1133379723751024","3","-0.019153614","-0.05746084","9.9790325","lay down","0"
"1133379743741649","3","-0.02873042","-0.038307227","9.9790325","lay down","0"
"1133379763732274","3","-0.019153614","-0.06703765","9.959879","lay down","0"
"1133379783755711","3","-0.019153614","-0.05746084","9.969456","lay down","0"
"1133379803746336","3","-0.038307227","-0.009576807","9.940725","lay down","0"
"1133379823736961","3","-0.009576807","-0.02873042","9.931149","lay down","0"
"1133379843727586","3","-0.019153614","-0.02873042","9.959879","lay down","0"
"1133379863751024","3","0.0","-0.038307227","9.969456","lay down","0"
"1133379883741649","3","-0.009576807","-0.06703765","9.950302","lay down","0"
"1133379903732274","3","-0.019153614","-0.038307227","9.959879","lay down","0"
"1133379923754149","3","-0.019153614","-0.06703765","9.959879","lay down","0"
"1133379943746336","3","-0.02873042","-0.05746084","9.988609","lay down","0"
"1133379963752586","3","-0.02873042","-0.05746084","9.988609","lay down","0"
"1133379983726024","3","-0.019153614","-0.06703765","9.9790325","lay down","0"
"1133380003749461","3","-0.019153614","-0.047884032","9.9790325","lay down","0"
"1133380023740086","3","-0.009576807","-0.05746084","9.959879","lay down","0"
"1133380043730711","3","-0.009576807","-0.076614454","9.969456","lay down","0"
"1133380063752586","3","-0.019153614","-0.05746084","9.969456","lay down","0"
"1133380083743211","3","-0.019153614","-0.05746084","9.940725","lay down","0"
"1133380103735399","3","-0.019153614","-0.047884032","9.959879","lay down","0"
"1133380123726024","3","-0.019153614","-0.038307227","9.950302","lay down","0"
"1133380143747899","3","-0.038307227","-0.05746084","9.998186","lay down","0"
"1133380163738524","3","-0.02873042","-0.08619126","9.969456","lay down","0"
"1133380183730711","3","-0.02873042","-0.047884032","9.940725","lay down","0"
"1133380203752586","3","-0.02873042","-0.047884032","9.969456","lay down","0"
"1133380223743211","3","-0.02873042","-0.047884032","9.9790325","lay down","0"
"1133380243733836","3","-0.009576807","-0.038307227","9.969456","lay down","0"
"1133380263724461","3","-0.019153614","-0.06703765","9.969456","lay down","0"
"1133380283746336","3","-0.038307227","-0.047884032","9.950302","lay down","0"
"1133380303738524","3","-0.047884032","-0.05746084","9.950302","lay down","0"
"1133380323729149","3","-0.038307227","-0.05746084","9.969456","lay down","0"
"1133380343751024","3","-0.009576807","-0.06703765","9.959879","lay down","0"
"1133380363741649","3","-0.02873042","-0.06703765","9.9790325","lay down","0"
"1133380383732274","3","-0.009576807","-0.076614454","9.969456","lay down","0"
"1133380403755711","3","-0.019153614","-0.05746084","9.959879","lay down","0"
"1133380423746336","3","-0.019153614","-0.047884032","9.959879","lay down","0"
"1133380443736961","3","-0.009576807","-0.06703765","9.950302","lay down","0"
"1133380463729149","3","-0.038307227","-0.076614454","9.940725","lay down","0"
"1133380483751024","3","-0.02873042","-0.06703765","9.969456","lay down","0"
"1133380503741649","3","-0.019153614","-0.047884032","9.959879","lay down","0"
"1133380523732274","3","-0.02873042","-0.047884032","9.969456","lay down","0"
"1133380543754149","3","-0.02873042","-0.047884032","9.931149","lay down","0"
"1133380563746336","3","-0.019153614","-0.06703765","9.940725","lay down","0"
"1133380583735399","3","-0.02873042","-0.047884032","9.959879","lay down","0"
"1133380603727586","3","-0.009576807","-0.05746084","9.9790325","lay down","0"
"1133380623749461","3","-0.009576807","-0.06703765","9.969456","lay down","0"
"1133380643740086","3","-0.019153614","-0.076614454","9.959879","lay down","0"
"1133380663747899","3","-0.019153614","-0.047884032","9.950302","lay down","0"
"1133380683754149","3","-0.038307227","-0.05746084","9.969456","lay down","0"
"1133380703744774","3","-0.038307227","-0.076614454","9.959879","lay down","0"
"1133380723735399","3","-0.009576807","-0.05746084","9.959879","lay down","0"
"1133380743726024","3","-0.02873042","-0.05746084","9.969456","lay down","0"
"1133380763747899","3","-0.038307227","-0.05746084","9.940725","lay down","0"
"1133380783738524","3","-0.02873042","-0.047884032","9.959879","lay down","0"
"1133380803730711","3","-0.02873042","-0.06703765","9.969456","lay down","0"
"1133380823752586","3","-0.019153614","-0.05746084","9.959879","lay down","0"
"1133380843743211","3","-0.009576807","-0.05746084","9.931149","lay down","0"
"1133380863733836","3","-0.019153614","-0.06703765","9.921572","lay down","0"
"1133380883726024","3","-0.019153614","-0.076614454","9.931149","lay down","0"
"1133380903747899","3","-0.02873042","-0.047884032","9.950302","lay down","0"
"1133380923738524","3","-0.019153614","-0.06703765","9.959879","lay down","0"
"1133380943729149","3","-0.019153614","-0.047884032","9.950302","lay down","0"
"1133380963751024","3","-0.019153614","-0.047884032","9.969456","lay down","0"
"1133380983743211","3","-0.019153614","-0.047884032","9.950302","lay down","0"
"1133381003733836","3","-0.009576807","-0.06703765","9.940725","lay down","0"
"1133381023724461","3","-0.02873042","-0.06703765","9.950302","lay down","0"
"1133381043746336","3","-0.019153614","-0.06703765","9.969456","lay down","0"
"1133381063736961","3","-0.019153614","-0.05746084","9.940725","lay down","0"
"1133381083729149","3","-0.02873042","-0.06703765","9.950302","lay down","0"
"1133381103751024","3","-0.047884032","-0.05746084","9.931149","lay down","0"
"1133381123741649","3","-0.009576807","-0.06703765","9.959879","lay down","0"
"1133381143732274","3","-0.019153614","-0.05746084","9.950302","lay down","0"
"1133381163754149","3","-0.02873042","-0.038307227","9.9790325","lay down","0"
"1133381183744774","3","-0.038307227","-0.06703765","9.940725","lay down","0"
"1133381203736961","3","-0.019153614","-0.05746084","9.950302","lay down","0"
"1133381223727586","3","-0.02873042","-0.047884032","9.959879","sit up","0"
"1133381243749461","3","-0.038307227","-0.05746084","9.959879","sit up","0"
"1133381263740086","3","-0.009576807","-0.076614454","9.940725","sit up","0"
"1133381283730711","3","-0.019153614","-0.076614454","9.940725","sit up","0"
"1133381303754149","3","-0.02873042","-0.05746084","9.940725","sit up","0"
"1133381323744774","3","-0.019153614","-0.047884032","9.959879","sit up","0"
"1133381343735399","3","-0.02873042","-0.05746084","9.959879","sit up","0"
"1133381363743211","3","-0.02873042","-0.05746084","9.902418","sit up","0"
"1133381383749461","3","-0.009576807","-0.06703765","9.969456","sit up","0"
"1133381403740086","3","-0.019153614","-0.06703765","10.036493","sit up","0"
"1133381423730711","3","-0.019153614","-0.095768064","10.065224","sit up","0"
"1133381443752586","3","-0.038307227","-0.095768064","10.0748005","sit up","0"
"1133381463743211","3","-0.038307227","-0.08619126","9.959879","sit up","0"
"1133381483733836","3","-0.019153614","-0.08619126","10.084377","sit up","0"
"1133381503726024","3","-0.019153614","-0.06703765","9.969456","sit up","0"
"1133381523747899","3","-0.019153614","-0.05746084","9.940725","sit up","0"
"1133381543738524","3","0.019153614","-0.10534488","9.969456","sit up","0"
"1133381563729149","3","-0.1340753","-0.076614454","9.940725","sit up","0"
"1133381583751024","3","-0.02873042","-0.02873042","9.969456","sit up","0"
"1133381603743211","3","-0.02873042","-0.047884032","9.998186","sit up","0"
"1133381623733836","3","-0.047884032","-0.10534488","9.921572","sit up","0"
"1133381643724461","3","-0.05746084","-0.038307227","9.940725","sit up","0"
"1133381663747899","3","-0.019153614","-0.10534488","9.988609","sit up","0"
"1133381683736961","3","0.11492168","-0.11492168","10.007763","sit up","0"
"1133381703729149","3","0.02873042","-0.009576807","10.01734","sit up","0"
"1133381723751024","3","-0.038307227","-0.019153614","9.940725","sit up","0"
"1133381743741649","3","-0.038307227","-0.02873042","9.950302","sit up","0"
"1133381763732274","3","0.0","-0.019153614","9.950302","sit up","0"
"1133381783754149","3","-0.06703765","-0.047884032","9.9790325","sit up","0"
"1133381803746336","3","-0.05746084","-0.019153614","9.931149","sit up","0"
"1133381823736961","3","-0.05746084","0.0","9.940725","sit up","0"
"1133381843727586","3","-0.05746084","-0.038307227","9.931149","sit up","0"
"1133381863749461","3","-0.076614454","-0.019153614","9.921572","sit up","0"
"1133381883741649","3","-0.02873042","-0.019153614","9.950302","sit up","0"
"1133381903732274","3","0.0","-0.038307227","9.969456","sit up","0"
"1133381923754149","3","0.019153614","-0.019153614","9.969456","sit up","0"
"1133381943744774","3","0.0","-0.038307227","9.969456","sit up","0"
"1133381963735399","3","0.0","-0.06703765","9.959879","sit up","0"
"1133381983727586","3","-0.009576807","-0.05746084","9.950302","sit up","0"
"1133382003749461","3","0.1436521","-0.05746084","9.969456","sit up","0"
"1133382023740086","3","0.16280572","-0.05746084","10.04607","sit up","0"
"1133382043730711","3","0.11492168","-0.06703765","10.04607","sit up","0"
"1133382063769774","3","0.06703765","0.0","9.969456","sit up","0"
"1133382083743211","3","-0.02873042","-0.06703765","9.825804","sit up","0"
"1133382103735399","3","0.1340753","-0.12449849","9.921572","sit up","0"
"1133382123726024","3","-0.1436521","-0.009576807","9.9790325","sit up","0"
"1133382143747899","3","-0.37349546","-0.05746084","9.902418","sit up","0"
"1133382163738524","3","-0.06703765","0.009576807","9.883265","sit up","0"
"1133382183729149","3","-0.047884032","-0.038307227","9.959879","sit up","0"
"1133382203751024","3","-0.1436521","-0.076614454","10.084377","sit up","0"
"1133382223743211","3","-0.11492168","-0.18195933","9.931149","sit up","0"
"1133382243733836","3","0.0","-0.11492168","10.0269165","sit up","0"
"1133382263724461","3","0.05746084","-0.02873042","10.0269165","sit up","0"
"1133382283746336","3","0.17238252","-0.076614454","9.959879","sit up","0"
"1133382303736961","3","-0.019153614","-0.06703765","10.0269165","sit up","0"
"1133382323729149","3","-0.22026655","-0.076614454","9.959879","sit up","0"
"1133382343751024","3","-0.19153613","-0.076614454","9.873688","sit up","0"
"1133382363741649","3","-0.19153613","-0.11492168","9.873688","sit up","0"
"1133382383733836","3","0.019153614","-0.06703765","9.844957","sit up","0"
"1133382403755711","3","0.0","-0.009576807","9.911995","sit up","0"
"1133382423746336","3","-0.076614454","-0.038307227","9.921572","sit up","0"
"1133382443736961","3","-0.019153614","-0.08619126","9.892841","sit up","0"
"1133382463727586","3","0.10534488","-0.009576807","9.892841","sit up","0"
"1133382483751024","3","0.16280572","-0.038307227","9.969456","sit up","0"
"1133382503741649","3","0.15322891","-0.06703765","9.998186","sit up","0"
"1133382523732274","3","0.10534488","0.02873042","10.0269165","sit up","0"
"1133382543754149","3","0.11492168","-0.019153614","9.873688","sit up","0"
"1133382563744774","3","0.05746084","-0.10534488","9.883265","sit up","0"
"1133382583736961","3","0.06703765","0.0","9.988609","sit up","0"
"1133382603727586","3","0.22984336","-0.019153614","9.931149","sit up","0"
"1133382623749461","3","0.18195933","-0.047884032","10.0269165","sit up","0"
"1133382643740086","3","0.019153614","-0.038307227","10.0269165","sit up","0"
"1133382663730711","3","0.05746084","-0.05746084","9.931149","sit up","0"
"1133382683752586","3","0.009576807","-0.047884032","9.950302","sit up","0"
"1133382703744774","3","0.038307227","-0.05746084","9.873688","sit up","0"
"1133382723735399","3","0.06703765","-0.076614454","9.940725","sit up","0"
"1133382743726024","3","0.019153614","-0.06703765","9.911995","sit up","0"
"1133382763765086","3","0.0","-0.05746084","9.864111","sit up","0"
"1133382783738524","3","0.33518824","-0.11492168","9.931149","sit up","0"
"1133382803730711","3","0.05746084","-0.05746084","10.04607","sit up","0"
"1133382823752586","3","0.05746084","-0.06703765","9.969456","sit up","0"
"1133382843743211","3","0.23942018","-0.076614454","9.931149","sit up","0"
"1133382863733836","3","0.18195933","-0.15322891","10.055647","sit up","0"
"1133382883724461","3","0.1340753","-0.076614454","9.988609","sit up","0"
"1133382903746336","3","0.15322891","-0.11492168","9.988609","sit up","0"
"1133382923738524","3","0.16280572","-0.11492168","9.998186","sit up","0"
"1133382943729149","3","0.1436521","-0.06703765","10.036493","sit up","0"
"1133382963751024","3","0.095768064","-0.10534488","9.9790325","sit up","0"
"1133382983741649","3","0.095768064","-0.06703765","9.911995","sit up","0"
"1133383003732274","3","0.02873042","-0.05746084","9.902418","sit up","0"
"1133383023755711","3","0.02873042","-0.038307227","9.931149","sit up","0"
"1133383043746336","3","0.12449849","-0.05746084","9.902418","sit up","0"
"1133383063736961","3","0.11492168","-0.10534488","9.959879","sit up","0"
"1133383083727586","3","0.047884032","-0.047884032","9.921572","sit up","0"
"1133383103751024","3","0.08619126","-0.08619126","9.883265","sit up","0"
"1133383123741649","3","0.12449849","-0.095768064","9.950302","sit up","0"
"1133383143732274","3","0.08619126","-0.08619126","9.959879","sit up","0"
"1133383163754149","3","0.1340753","-0.15322891","9.883265","sit up","0"
"1133383183744774","3","0.10534488","-0.095768064","10.01734","sit up","0"
"1133383203735399","3","0.095768064","-0.11492168","9.931149","sit up","0"
"1133383223727586","3","0.10534488","-0.10534488","9.921572","sit up","0"
"1133383243749461","3","0.10534488","-0.10534488","9.950302","sit up","0"
"1133383263740086","3","0.11492168","-0.12449849","9.959879","sit up","0"
"1133383283730711","3","0.15322891","-0.12449849","9.969456","sit up","0"
"1133383303752586","3","0.1340753","-0.11492168","9.9790325","sit up","0"
"1133383323744774","3","0.10534488","-0.08619126","9.959879","sit up","0"
"1133383343735399","3","0.11492168","-0.11492168","9.969456","sit up","0"
"1133383363726024","3","0.15322891","-0.12449849","9.959879","sit up","0"
"1133383383747899","3","0.12449849","-0.11492168","9.959879","sit up","0"
"1133383403738524","3","0.10534488","-0.11492168","9.950302","sit up","0"
"1133383423730711","3","0.095768064","-0.08619126","9.940725","sit up","0"
"1133383443752586","3","0.11492168","-0.10534488","9.921572","sit up","0"
"1133383463760399","3","0.095768064","-0.095768064","9.931149","sit up","0"
"1133383483733836","3","0.08619126","-0.10534488","9.950302","sit up","0"
"1133383503726024","3","0.05746084","-0.038307227","9.911995","sit up","0"
"1133383523747899","3","0.08619126","-0.10534488","9.950302","sit up","0"
"1133383543738524","3","0.06703765","-0.076614454","9.950302","sit up","0"
"1133383563729149","3","0.05746084","-0.08619126","9.911995","sit up","0"
"1133383583751024","3","0.02873042","-0.047884032","9.950302","sit up","0"
"1133383603743211","3","0.05746084","-0.076614454","9.969456","sit up","0"
"1133383623733836","3","0.076614454","-0.08619126","9.959879","sit up","0"
"1133383643724461","3","0.076614454","-0.08619126","9.959879","sit up","0"
"1133383663746336","3","0.076614454","-0.095768064","9.9790325","sit up","0"
"1133383683736961","3","0.047884032","-0.076614454","9.959879","sit up","0"
"1133383703727586","3","0.095768064","-0.095768064","9.950302","sit up","0"
"1133383723749461","3","0.10534488","-0.08619126","9.969456","sit up","0"
"1133383743741649","3","0.08619126","-0.11492168","9.950302","sit up","0"
"1133383763732274","3","0.10534488","-0.10534488","9.959879","sit up","0"
"1133383783754149","3","0.10534488","-0.10534488","9.931149","sit up","0"
"1133383803744774","3","0.08619126","-0.095768064","9.9790325","sit up","0"
"1133383823736961","3","0.10534488","-0.095768064","9.931149","sit up","0"
"1133383843727586","3","0.095768064","-0.095768064","9.931149","sit up","0"
"1133383863749461","3","0.076614454","-0.11492168","9.9790325","sit up","0"
"1133383883740086","3","0.095768064","-0.11492168","9.911995","sit up","0"
"1133383903730711","3","0.076614454","-0.095768064","9.950302","sit up","0"
"1133383923754149","3","0.076614454","-0.095768064","9.921572","sit up","0"
"1133383943744774","3","0.076614454","-0.095768064","9.931149","sit up","0"
"1133383963735399","3","0.08619126","-0.095768064","9.931149","sit up","0"
"1133383983726024","3","0.095768064","-0.095768064","9.950302","sit up","0"
"1133384003747899","3","0.06703765","-0.08619126","9.940725","sit up","0"
"1133384023740086","3","0.06703765","-0.10534488","9.940725","sit up","0"
"1133384043730711","3","0.08619126","-0.08619126","9.921572","sit up","0"
"1133384063752586","3","0.06703765","-0.095768064","9.959879","sit up","0"
"1133384083743211","3","0.095768064","-0.095768064","9.921572","sit up","0"
"1133384103735399","3","0.095768064","-0.095768064","9.9790325","sit up","0"
"1133384123726024","3","0.076614454","-0.095768064","9.950302","sit up","0"
"1133384143747899","3","0.06703765","-0.10534488","9.959879","sit up","0"
"1133384163754149","3","0.095768064","-0.10534488","9.950302","sit up","0"
"1133384183729149","3","0.095768064","-0.095768064","9.959879","sit up","0"
"1133384203751024","3","0.08619126","-0.08619126","9.959879","sit up","0"
"1133384223743211","3","0.08619126","-0.08619126","9.9790325","sit up","0"
"1133384243733836","3","0.076614454","-0.08619126","9.959879","sit up","0"
"1133384263724461","3","0.10534488","-0.095768064","9.921572","sit up","0"
"1133384283746336","3","0.05746084","-0.08619126","9.950302","sit up","0"
"1133384303736961","3","0.095768064","-0.08619126","9.940725","sit up","0"
"1133384323729149","3","0.095768064","-0.10534488","9.950302","sit up","0"
"1133384343751024","3","0.076614454","-0.095768064","9.950302","sit up","0"
"1133384363741649","3","0.076614454","-0.08619126","9.940725","sit up","0"
"1133384383732274","3","0.08619126","-0.095768064","9.950302","sit up","0"
"1133384403754149","3","0.076614454","-0.08619126","9.950302","sit up","0"
"1133384423746336","3","0.08619126","-0.08619126","9.931149","sit up","0"
"1133384443736961","3","0.076614454","-0.08619126","9.940725","sit up","0"
"1133384463727586","3","0.10534488","-0.12449849","9.959879","sit up","0"
"1133384483749461","3","0.06703765","-0.095768064","9.940725","sit up","0"
"1133384503740086","3","0.08619126","-0.11492168","9.959879","sit up","0"
"1133384523730711","3","0.095768064","-0.10534488","9.921572","sit up","0"
"1133384543754149","3","0.076614454","-0.08619126","9.950302","sit up","0"
"1133384563744774","3","0.06703765","-0.10534488","9.950302","sit up","0"
"1133384583735399","3","0.076614454","-0.076614454","9.959879","sit up","0"
"1133384603726024","3","0.08619126","-0.08619126","9.940725","sit up","0"
"1133384623749461","3","0.08619126","-0.08619126","9.940725","sit up","0"
"1133384643740086","3","0.076614454","-0.08619126","9.959879","sit up","0"
"1133384663730711","3","0.076614454","-0.095768064","9.950302","sit up","0"
"1133384683752586","3","0.08619126","-0.095768064","9.931149","sit up","0"
"1133384703744774","3","0.095768064","-0.10534488","9.969456","sit up","0"
"1133384723733836","3","0.08619126","-0.095768064","9.959879","sit up","0"
"1133384743726024","3","0.08619126","-0.10534488","9.921572","sit up","0"
"1133384763747899","3","0.08619126","-0.10534488","9.931149","sit up","0"
"1133384783738524","3","0.08619126","-0.076614454","9.940725","sit up","0"
"1133384803729149","3","0.10534488","-0.11492168","9.940725","sit up","0"
"1133384823752586","3","0.095768064","-0.10534488","9.940725","sit up","0"
"1133384843743211","3","0.095768064","-0.10534488","9.959879","sit up","0"
"1133384863749461","3","0.08619126","-0.11492168","9.940725","sit up","0"
"1133384883724461","3","0.076614454","-0.10534488","9.950302","sit up","0"
"1133384903746336","3","0.08619126","-0.10534488","9.931149","sit up","0"
"1133384923736961","3","0.08619126","-0.12449849","9.959879","sit up","0"
"1133384943729149","3","0.08619126","-0.10534488","9.969456","sit up","0"
"1133384963751024","3","0.08619126","-0.095768064","9.950302","sit up","0"
"1133384983743211","3","0.076614454","-0.095768064","9.959879","sit up","0"
"1133385003732274","3","0.08619126","-0.095768064","9.921572","sit up","0"
"1133385023754149","3","0.08619126","-0.08619126","9.950302","sit up","0"
"1133385043746336","3","0.08619126","-0.08619126","9.950302","sit up","0"
"1133385063736961","3","0.10534488","-0.12449849","9.959879","sit up","0"
"1133385083727586","3","0.076614454","-0.095768064","9.959879","sit up","0"
"1133385103751024","3","0.08619126","-0.10534488","9.969456","sit up","0"
"1133385123740086","3","0.06703765","-0.06703765","9.959879","sit up","0"
"1133385143732274","3","0.08619126","-0.11492168","9.959879","sit up","0"
"1133385163754149","3","0.08619126","-0.08619126","9.940725","sit up","0"
"1133385183744774","3","0.08619126","-0.10534488","9.940725","sit up","0"
"1133385203735399","3","0.076614454","-0.076614454","9.931149","sit up","0"
"1133385223726024","3","0.08619126","-0.10534488","9.950302","stand up","0"
"1133385243749461","3","0.095768064","-0.12449849","9.940725","stand up","0"
"1133385263740086","3","0.10534488","-0.10534488","9.931149","stand up","0"
"1133385283730711","3","0.095768064","-0.10534488","9.940725","stand up","0"
"1133385303752586","3","0.095768064","-0.08619126","9.921572","stand up","0"
"1133385323743211","3","0.076614454","-0.095768064","9.9790325","stand up","0"
"1133385343733836","3","0.10534488","-0.10534488","9.940725","stand up","0"
"1133385363726024","3","0.076614454","-0.12449849","10.01734","stand up","0"
"1133385383747899","3","0.05746084","-0.076614454","9.921572","stand up","0"
"1133385403738524","3","0.05746084","-0.076614454","9.892841","stand up","0"
"1133385423730711","3","0.076614454","-0.10534488","9.950302","stand up","0"
"1133385443752586","3","0.10534488","-0.095768064","10.036493","stand up","0"
"1133385463743211","3","0.08619126","-0.11492168","10.103531","stand up","0"
"1133385483733836","3","0.10534488","-0.12449849","9.998186","stand up","0"
"1133385503724461","3","0.08619126","-0.10534488","9.959879","stand up","0"
"1133385523747899","3","0.08619126","-0.095768064","9.969456","stand up","0"
"1133385543738524","3","0.08619126","-0.10534488","9.931149","stand up","0"
"1133385563746336","3","0.076614454","-0.10534488","9.969456","stand up","0"
"1133385583751024","3","0.076614454","-0.095768064","9.950302","stand up","0"
"1133385603743211","3","0.08619126","-0.11492168","9.911995","stand up","0"
"1133385623732274","3","0.06703765","-0.08619126","9.959879","stand up","0"
"1133385643755711","3","0.06703765","-0.08619126","9.940725","stand up","0"
"1133385663746336","3","0.08619126","-0.095768064","9.940725","stand up","0"
"1133385683736961","3","0.047884032","-0.095768064","9.931149","stand up","0"
"1133385703727586","3","0.076614454","-0.076614454","9.940725","stand up","0"
"1133385723749461","3","0.076614454","-0.076614454","9.940725","stand up","0"
"1133385743741649","3","0.038307227","-0.08619126","9.950302","stand up","0"
"1133385763730711","3","0.038307227","-0.095768064","9.931149","stand up","0"
"1133385783754149","3","0.047884032","-0.08619126","9.911995","stand up","0"
"1133385803744774","3","0.038307227","-0.076614454","9.940725","stand up","0"
"1133385823735399","3","0.038307227","-0.076614454","9.921572","stand up","0"
"1133385843726024","3","0.047884032","-0.095768064","9.950302","stand up","0"
"1133385863749461","3","0.009576807","-0.06703765","9.931149","stand up","0"
"1133385883740086","3","0.02873042","-0.076614454","9.931149","stand up","0"
"1133385903730711","3","0.019153614","-0.08619126","9.931149","stand up","0"
"1133385923752586","3","-0.009576807","-0.06703765","9.931149","stand up","0"
"1133385943744774","3","-0.076614454","-0.038307227","9.902418","stand up","0"
"1133385963735399","3","-0.06703765","-0.038307227","9.883265","stand up","0"
"1133385983726024","3","0.0","-0.038307227","9.931149","stand up","0"
"1133386003747899","3","0.009576807","-0.095768064","9.988609","stand up","0"
"1133386023738524","3","0.009576807","-0.05746084","10.0269165","stand up","0"
"1133386043729149","3","-0.038307227","-0.047884032","9.988609","stand up","0"
"1133386063752586","3","0.05746084","-0.06703765","10.007763","stand up","0"
"1133386083743211","3","0.21068975","-0.16280572","10.065224","stand up","0"
"1133386103733836","3","-0.17238252","-0.009576807","9.940725","stand up","0"
"1133386123724461","3","0.16280572","-0.16280572","9.864111","stand up","0"
"1133386143746336","3","0.095768064","-0.11492168","10.04607","stand up","0"
"1133386163738524","3","0.06703765","-0.1436521","9.921572","stand up","0"
"1133386183729149","3","0.10534488","-0.06703765","9.883265","stand up","0"
"1133386203751024","3","0.11492168","-0.076614454","9.9790325","stand up","0"
"1133386223743211","3","0.047884032","-0.076614454","9.940725","stand up","0"
"1133386243732274","3","0.02873042","-0.08619126","9.940725","stand up","0"
"1133386263771336","3","0.0","-0.02873042","9.940725","stand up","0"
"1133386283746336","3","0.0","-0.076614454","9.950302","stand up","0"
"1133386303736961","3","0.038307227","-0.05746084","9.940725","stand up","0"
"1133386323727586","3","0.12449849","-0.11492168","9.998186","stand up","0"
"1133386343749461","3","-0.11492168","-0.06703765","9.883265","stand up","0"
"1133386363741649","3","-0.038307227","0.0","9.911995","stand up","0"
"1133386383732274","3","0.047884032","-0.047884032","9.931149","stand up","0"
"1133386403754149","3","0.009576807","-0.06703765","9.969456","stand up","0"
"1133386423744774","3","0.019153614","-0.06703765","9.940725","stand up","0"
"1133386443735399","3","0.019153614","-0.06703765","9.950302","stand up","0"
"1133386463727586","3","0.038307227","-0.06703765","9.940725","stand up","0"
"1133386483749461","3","0.038307227","-0.076614454","9.959879","stand up","0"
"1133386503740086","3","0.02873042","-0.076614454","9.940725","stand up","0"
"1133386523730711","3","0.009576807","-0.05746084","9.959879","stand up","0"
"1133386543752586","3","0.038307227","-0.047884032","9.911995","stand up","0"
"1133386563744774","3","0.009576807","-0.06703765","9.950302","stand up","0"
"1133386583735399","3","0.0","-0.06703765","9.988609","stand up","0"
"1133386603726024","3","0.05746084","-0.095768064","9.892841","stand up","0"
"1133386623747899","3","0.0","-0.06703765","9.988609","stand up","0"
"1133386643738524","3","0.038307227","-0.06703765","9.902418","stand up","0"
"1133386663730711","3","0.02873042","-0.05746084","9.940725","stand up","0"
"1133386683752586","3","0.019153614","-0.06703765","9.950302","stand up","0"
"1133386703743211","3","0.02873042","-0.08619126","9.950302","stand up","0"
"1133386723733836","3","0.02873042","-0.06703765","9.940725","stand up","0"
"1133386743724461","3","0.019153614","-0.05746084","9.940725","stand up","0"
"1133386763747899","3","0.019153614","-0.06703765","9.959879","stand up","0"
"1133386783738524","3","0.019153614","-0.047884032","9.940725","stand up","0"
"1133386803729149","3","0.02873042","-0.08619126","9.931149","stand up","0"
"1133386823751024","3","0.019153614","-0.06703765","9.950302","stand up","0"
"1133386843741649","3","0.009576807","-0.05746084","9.931149","stand up","0"
"1133386863732274","3","0.038307227","-0.095768064","9.931149","stand up","0"
"1133386883724461","3","0.009576807","-0.06703765","9.950302","stand up","0"
"1133386903746336","3","0.047884032","-0.076614454","9.940725","stand up","0"
"1133386923736961","3","0.019153614","-0.05746084","9.950302","stand up","0"
"1133386943729149","3","0.02873042","-0.06703765","9.931149","stand up","0"
"1133386963766649","3","0.038307227","-0.06703765","9.950302","stand up","0"
"1133386983741649","3","0.02873042","-0.08619126","9.950302","stand up","0"
"1133387003732274","3","0.019153614","-0.076614454","9.931149","stand up","0"
"1133387023754149","3","0.038307227","-0.05746084","9.931149","stand up","0"
"1133387043746336","3","0.02873042","-0.038307227","9.940725","stand up","0"
"1133387063735399","3","0.02873042","-0.076614454","9.940725","stand up","0"
"1133387083727586","3","0.02873042","-0.05746084","9.940725","stand up","0"
"1133387103749461","3","0.02873042","-0.05746084","9.921572","stand up","0"
"1133387123740086","3","0.019153614","-0.06703765","9.950302","stand up","0"
"1133387143732274","3","0.02873042","-0.076614454","9.950302","stand up","0"
"1133387163752586","3","0.047884032","-0.08619126","9.950302","stand up","0"
"1133387183744774","3","0.019153614","-0.047884032","9.921572","stand up","0"
"1133387203735399","3","0.02873042","-0.076614454","9.940725","stand up","0"
"1133387223726024","3","0.019153614","-0.05746084","9.950302","stand up","0"
"1133387243747899","3","0.02873042","-0.06703765","9.940725","stand up","0"
"1133387263738524","3","0.02873042","-0.076614454","9.950302","stand up","0"
"1133387283730711","3","0.02873042","-0.05746084","9.921572","stand up","0"
"1133387303752586","3","0.038307227","-0.06703765","9.950302","stand up","0"
"1133387323743211","3","0.019153614","-0.06703765","9.931149","stand up","0"
"1133387343733836","3","0.038307227","-0.076614454","9.931149","stand up","0"
"1133387363726024","3","0.009576807","-0.076614454","9.959879","stand up","0"
"1133387383747899","3","0.038307227","-0.076614454","9.921572","stand up","0"
"1133387403738524","3","0.02873042","-0.047884032","9.940725","stand up","0"
"1133387423729149","3","0.009576807","-0.076614454","9.950302","stand up","0"
"1133387443752586","3","0.009576807","-0.05746084","9.940725","stand up","0"
"1133387463743211","3","0.02873042","-0.05746084","9.950302","stand up","0"
"1133387483733836","3","0.019153614","-0.02873042","9.931149","stand up","0"
"1133387503724461","3","0.0","-0.06703765","9.940725","stand up","0"
"1133387523746336","3","0.02873042","-0.05746084","9.959879","stand up","0"
"1133387543736961","3","0.019153614","-0.06703765","9.950302","stand up","0"
"1133387563727586","3","0.019153614","-0.05746084","9.921572","stand up","0"
"1133387583751024","3","0.009576807","-0.076614454","9.931149","stand up","0"
"1133387603741649","3","0.02873042","-0.08619126","9.950302","stand up","0"
"1133387623732274","3","0.02873042","-0.076614454","9.940725","stand up","0"
"1133387643754149","3","0.047884032","-0.06703765","9.931149","stand up","0"
"1133387663761961","3","0.02873042","-0.076614454","9.931149","stand up","0"
"1133387683736961","3","0.02873042","-0.05746084","9.950302","stand up","0"
"1133387703727586","3","0.009576807","-0.06703765","9.940725","stand up","0"
"1133387723749461","3","0.009576807","-0.05746084","9.969456","stand up","0"
"1133387743741649","3","0.009576807","-0.06703765","9.950302","stand up","0"
"1133387763730711","3","0.038307227","-0.05746084","9.940725","stand up","0"
"1133387783754149","3","0.02873042","-0.076614454","9.969456","stand up","0"
"1133387803744774","3","0.009576807","-0.076614454","9.940725","stand up","0"
"1133387823735399","3","0.02873042","-0.06703765","9.921572","stand up","0"
"1133387843726024","3","0.019153614","-0.05746084","9.931149","stand up","0"
"1133387863749461","3","0.009576807","-0.06703765","9.959879","stand up","0"
"1133387883738524","3","0.02873042","-0.08619126","9.959879","stand up","0"
"1133387903730711","3","0.038307227","-0.05746084","9.931149","stand up","0"
"1133387923752586","3","0.009576807","-0.06703765","9.931149","stand up","0"
"1133387943744774","3","0.009576807","-0.06703765","9.950302","stand up","0"
"1133387963733836","3","0.019153614","-0.06703765","9.931149","stand up","0"
"1133387983726024","3","0.02873042","-0.06703765","9.931149","stand up","0"
"1133388003747899","3","0.019153614","-0.076614454","9.950302","stand up","0"
"1133388023738524","3","0.009576807","-0.047884032","9.940725","stand up","0"
"1133388043729149","3","0.009576807","-0.06703765","9.950302","stand up","0"
"1133388063752586","3","0.009576807","-0.06703765","9.940725","stand up","0"
"1133388083743211","3","0.038307227","-0.076614454","9.940725","stand up","0"
"1133388103733836","3","0.02873042","-0.06703765","9.940725","stand up","0"
"1133388123724461","3","0.009576807","-0.06703765","9.921572","stand up","0"
"1133388143747899","3","0.02873042","-0.06703765","9.931149","stand up","0"
"1133388163736961","3","0.019153614","-0.05746084","9.940725","stand up","0"
"1133388183729149","3","0.019153614","-0.08619126","9.950302","stand up","0"
"1133388203751024","3","0.038307227","-0.047884032","9.931149","stand up","0"
"1133388223741649","3","0.009576807","-0.08619126","9.940725","stand up","0"
"1133388243732274","3","0.009576807","-0.047884032","9.921572","stand up","0"
"1133388263754149","3","0.02873042","-0.076614454","9.921572","stand up","0"
"1133388283746336","3","0.038307227","-0.05746084","9.931149","stand up","0"
"1133388303736961","3","0.02873042","-0.076614454","9.931149","stand up","0"
"1133388323727586","3","0.009576807","-0.06703765","9.921572","stand up","0"
"1133388343749461","3","0.019153614","-0.076614454","9.931149","stand up","0"
"1133388363757274","3","0.019153614","-0.06703765","9.911995","stand up","0"
"1133388383732274","3","0.019153614","-0.06703765","9.921572","stand up","0"
"1133388403754149","3","0.02873042","-0.06703765","9.940725","stand up","0"
"1133388423744774","3","0.02873042","-0.047884032","9.940725","stand up","0"
"1133388443735399","3","0.009576807","-0.06703765","9.921572","stand up","0"
"1133388463726024","3","0.019153614","-0.06703765","9.931149","stand up","0"
"1133388483749461","3","0.02873042","-0.06703765","9.931149","stand up","0"
"1133388503740086","3","0.019153614","-0.076614454","9.940725","stand up","0"
"1133388523730711","3","0.02873042","-0.076614454","9.921572","stand up","0"
"1133388543752586","3","0.038307227","-0.08619126","9.940725","stand up","0"
"1133388563744774","3","0.009576807","-0.076614454","9.940725","stand up","0"
"1133388583735399","3","0.02873042","-0.06703765","9.931149","stand up","0"
"1133388603726024","3","0.02873042","-0.095768064","9.911995","stand up","0"
"1133388623747899","3","0.02873042","-0.06703765","9.921572","stand up","0"
"1133388643738524","3","0.019153614","-0.076614454","9.940725","stand up","0"
"1133388663729149","3","0.038307227","-0.08619126","9.921572","stand up","0"
"1133388683751024","3","0.019153614","-0.06703765","9.931149","stand up","0"
"1133388703743211","3","0.02873042","-0.06703765","9.911995","stand up","0"
"1133388723733836","3","0.009576807","-0.047884032","9.921572","stand up","0"
"1133388743724461","3","0.009576807","-0.047884032","9.931149","stand up","0"
"1133388763747899","3","0.0","-0.095768064","9.921572","stand up","0"
"1133388783738524","3","0.019153614","-0.076614454","9.911995","stand up","0"
"1133388803729149","3","0.0","-0.05746084","9.940725","stand up","0"
"1133388823751024","3","0.019153614","-0.05746084","9.931149","stand up","0"
"1133388843741649","3","0.019153614","-0.05746084","9.921572","stand up","0"
"1133388863733836","3","0.019153614","-0.06703765","9.911995","stand up","0"
"1133388883755711","3","0.009576807","-0.047884032","9.931149","stand up","0"
"1133388903746336","3","0.009576807","-0.08619126","9.921572","stand up","0"
"1133388923736961","3","0.019153614","-0.06703765","9.940725","stand up","0"
"1133388943729149","3","0.019153614","-0.05746084","9.931149","stand up","0"
"1133388963751024","3","0.019153614","-0.047884032","9.921572","stand up","0"
"1133388983741649","3","0.019153614","-0.05746084","9.940725","stand up","0"
"1133389003732274","3","0.019153614","-0.05746084","9.902418","stand up","0"
"1133389023754149","3","0.009576807","-0.06703765","9.902418","stand up","0"
"1133389043744774","3","0.02873042","-0.06703765","9.921572","stand up","0"
"1133389063752586","3","0.019153614","-0.047884032","9.931149","stand up","0"
"1133389083727586","3","0.02873042","-0.05746084","9.911995","stand up","0"
"1133389103749461","3","0.019153614","-0.06703765","9.931149","stand up","0"
"1133389123740086","3","0.02873042","-0.076614454","9.902418","stand up","0"
"1133389143730711","3","0.02873042","-0.05746084","9.911995","stand up","0"
"1133389163754149","3","0.019153614","-0.047884032","9.921572","stand up","0"
"1133389183744774","3","0.02873042","-0.095768064","9.911995","stand up","0"
"1133389203735399","3","0.009576807","-0.076614454","9.921572","stand up","0"
"1133389261726024","3","0.009576807","-0.076614454","9.921572","none","1"
"1133389281747899","3","0.009576807","-0.05746084","9.931149","none","1"
"1133389301740086","3","0.019153614","-0.076614454","9.892841","none","1"
"1133389321730711","3","0.009576807","-0.05746084","9.911995","none","1"
"1133389341751024","3","0.019153614","-0.076614454","9.902418","none","1"
"1133389361741649","3","0.009576807","-0.05746084","9.911995","none","1"
"1133389381732274","3","0.009576807","-0.076614454","9.902418","none","1"
"1133389401754149","3","0.009576807","-0.05746084","9.931149","none","1"
"1133389421761961","3","0.019153614","-0.047884032","9.940725","none","1"
"1133389441736961","3","0.019153614","-0.06703765","9.921572","none","1"
"1133389461727586","3","0.019153614","-0.06703765","9.921572","none","1"
"1133389481749461","3","0.009576807","-0.076614454","9.911995","none","1"
"1133389501740086","3","0.019153614","-0.06703765","9.921572","none","1"
"1133389521732274","3","0.02873042","-0.06703765","9.940725","none","1"
"1133389541754149","3","0.019153614","-0.06703765","9.921572","none","1"
"1133389561744774","3","0.019153614","-0.05746084","9.921572","none","1"
"1133389581735399","3","0.038307227","-0.08619126","9.902418","none","1"
"1133389601726024","3","0.019153614","-0.05746084","9.892841","none","1"
"1133389621749461","3","0.009576807","-0.05746084","9.921572","none","1"
"1133389641740086","3","0.02873042","-0.06703765","9.931149","none","1"
"1133389661730711","3","0.02873042","-0.06703765","9.921572","none","1"
"1133389681752586","3","0.0","-0.05746084","9.931149","none","1"
"1133389701743211","3","0.009576807","-0.047884032","9.921572","none","1"
"1133389721733836","3","0.019153614","-0.05746084","9.931149","none","1"
"1133389741726024","3","0.0","-0.038307227","9.921572","none","1"
"1133389761747899","3","0.009576807","-0.076614454","9.921572","none","1"
"1133389781738524","3","0.009576807","-0.05746084","9.911995","none","1"
"1133389801729149","3","0.009576807","-0.05746084","9.940725","none","1"
"1133389821751024","3","0.009576807","-0.047884032","9.921572","none","1"
"1133389841743211","3","0.02873042","-0.05746084","9.931149","none","1"
"1133389861733836","3","0.0","-0.047884032","9.931149","none","1"
"1133389881724461","3","0.019153614","-0.047884032","9.931149","none","1"
"1133389901746336","3","0.02873042","-0.06703765","9.902418","none","1"
"1133389921736961","3","0.009576807","-0.06703765","9.911995","none","1"
"1133389941729149","3","0.009576807","-0.06703765","9.911995","none","1"
"1133389961751024","3","0.02873042","-0.05746084","9.921572","none","1"
"1133389981741649","3","0.009576807","-0.076614454","9.902418","none","1"
"1133390001732274","3","0.019153614","-0.05746084","9.911995","none","1"
"1133390021754149","3","0.019153614","-0.06703765","9.911995","none","1"
"1133390041746336","3","0.009576807","-0.05746084","9.921572","none","1"
"1133390061736961","3","0.038307227","-0.06703765","9.921572","none","1"
"1133390081727586","3","0.009576807","-0.06703765","9.921572","none","1"
"1133390101749461","3","0.019153614","-0.047884032","9.902418","none","1"
"1133390121757274","3","0.019153614","-0.076614454","9.902418","none","1"
"1133390141732274","3","0.019153614","-0.05746084","9.921572","none","1"
"1133390161754149","3","0.009576807","-0.06703765","9.931149","none","1"
"1133390181744774","3","0.019153614","-0.06703765","9.892841","none","1"
"1133390201735399","3","0.02873042","-0.038307227","9.921572","none","1"
"1133390221726024","3","0.02873042","-0.05746084","9.911995","none","1"
"1133390241749461","3","0.009576807","-0.05746084","9.902418","none","1"
"1133390261740086","3","0.019153614","-0.05746084","9.902418","none","1"
"1133390281730711","3","0.02873042","-0.076614454","9.911995","none","1"
"1133390301752586","3","0.009576807","-0.047884032","9.902418","none","1"
"1133390321744774","3","0.02873042","-0.047884032","9.911995","none","1"
"1133390341735399","3","0.009576807","-0.047884032","9.921572","none","1"
"1133390361726024","3","0.019153614","-0.06703765","9.902418","none","1"
"1133390381747899","3","0.0","-0.05746084","9.911995","none","1"
"1133390401738524","3","0.02873042","-0.06703765","9.911995","none","1"
"1133390421729149","3","0.009576807","-0.06703765","9.883265","none","1"
"1133390441752586","3","0.009576807","-0.038307227","9.883265","none","1"
"1133390461743211","3","0.019153614","-0.06703765","9.892841","none","1"
"1133390481733836","3","0.02873042","-0.047884032","9.911995","none","1"
"1133390501724461","3","0.019153614","-0.05746084","9.911995","none","1"
"1133390521747899","3","0.02873042","-0.05746084","9.902418","none","1"
"1133390541738524","3","0.0","-0.05746084","9.911995","none","1"
"1133390561729149","3","0.019153614","-0.06703765","9.902418","none","1"
"1133390581751024","3","0.019153614","-0.038307227","9.911995","none","1"
"1133390601743211","3","0.019153614","-0.06703765","9.921572","none","1"
"1133390621732274","3","0.009576807","-0.038307227","9.902418","none","1"
"1133390641755711","3","0.0","-0.047884032","9.921572","none","1"
"1133390661746336","3","0.019153614","-0.05746084","9.902418","none","1"
"1133390681736961","3","0.019153614","-0.047884032","9.892841","none","1"
"1133390701727586","3","0.019153614","-0.05746084","9.921572","none","1"
"1133390721751024","3","0.009576807","-0.076614454","9.911995","none","1"
"1133390741741649","3","0.02873042","-0.06703765","9.911995","none","1"
"1133390761732274","3","0.02873042","-0.05746084","9.911995","none","1"
"1133390781754149","3","0.019153614","-0.076614454","9.921572","none","1"
"1133390801744774","3","0.019153614","-0.08619126","9.883265","none","1"
"1133390821752586","3","0.02873042","-0.047884032","9.902418","none","1"
"1133390841727586","3","0.02873042","-0.038307227","9.921572","none","1"
"1133390861749461","3","0.0","-0.06703765","9.911995","none","1"
"1133390881740086","3","0.02873042","-0.05746084","9.931149","none","1"
"1133390901730711","3","0.0","-0.047884032","9.911995","none","1"
"1133390921754149","3","0.009576807","-0.05746084","9.921572","none","1"
"1133390941744774","3","0.02873042","-0.08619126","9.921572","none","1"
"1133390961735399","3","0.0","-0.038307227","9.931149","none","1"
"1133390981726024","3","0.009576807","-0.05746084","9.892841","none","1"
"1133391001747899","3","0.019153614","-0.038307227","9.911995","none","1"
"1133391021738524","3","0.02873042","-0.076614454","9.921572","none","1"
"1133391041730711","3","0.02873042","-0.047884032","9.921572","none","1"
"1133391061752586","3","0.009576807","-0.05746084","9.902418","none","1"
"1133391081743211","3","0.019153614","-0.047884032","9.921572","none","1"
"1133391101733836","3","0.02873042","-0.06703765","9.921572","none","1"
"1133391121724461","3","0.038307227","-0.076614454","9.902418","none","1"
"1133391141747899","3","0.009576807","-0.05746084","9.902418","none","1"
"1133391161738524","3","0.009576807","-0.047884032","9.921572","none","1"
"1133391181729149","3","0.019153614","-0.05746084","9.921572","none","1"
"1133391201751024","3","0.038307227","-0.06703765","9.911995","none","1"
"1133391221743211","3","0.009576807","-0.047884032","9.883265","none","1"
"1133391241733836","3","0.02873042","-0.06703765","9.911995","none","1"
"1133391261724461","3","0.019153614","-0.047884032","9.911995","none","1"
"1133391281746336","3","0.019153614","-0.06703765","9.902418","none","1"
"1133391301736961","3","0.019153614","-0.06703765","9.902418","none","1"
"1133391321727586","3","0.019153614","-0.05746084","9.921572","none","1"
"1133391341751024","3","0.02873042","-0.047884032","9.902418","none","1"
"1133391361741649","3","0.019153614","-0.076614454","9.921572","none","1"
"1133391381732274","3","0.009576807","-0.06703765","9.902418","none","1"
"1133391401754149","3","0.009576807","-0.06703765","9.883265","none","1"
"1133391421744774","3","0.019153614","-0.047884032","9.921572","none","1"
"1133391441736961","3","0.038307227","-0.06703765","9.902418","none","1"
"1133391461727586","3","0.02873042","-0.05746084","9.911995","none","1"
"1133391481749461","3","0.019153614","-0.05746084","9.921572","none","1"
"1133391501740086","3","0.009576807","-0.05746084","9.911995","none","1"
"1133391521747899","3","0.02873042","-0.06703765","9.931149","none","1"
"1133391541752586","3","0.019153614","-0.06703765","9.921572","none","1"
"1133391561744774","3","0.047884032","-0.076614454","9.911995","none","1"
"1133391581735399","3","0.009576807","-0.05746084","9.921572","none","1"
"1133391601726024","3","0.019153614","-0.06703765","9.902418","none","1"
"1133391621747899","3","0.009576807","-0.076614454","9.921572","none","1"
"1133391641738524","3","0.019153614","-0.05746084","9.902418","none","1"
"1133391661730711","3","0.019153614","-0.06703765","9.921572","none","1"
"1133391681752586","3","0.009576807","-0.05746084","9.931149","none","1"
"1133391701743211","3","0.019153614","-0.076614454","9.921572","none","1"
"1133391721735399","3","0.019153614","-0.08619126","9.902418","none","1"
"1133391741726024","3","0.019153614","-0.06703765","9.921572","none","1"
"1133391761747899","3","0.02873042","-0.08619126","9.902418","none","1"
"1133391781738524","3","0.02873042","-0.06703765","9.931149","none","1"
"1133391801729149","3","0.02873042","-0.08619126","9.911995","none","1"
"1133391821751024","3","0.019153614","-0.076614454","9.921572","none","1"
"1133391841743211","3","0.02873042","-0.06703765","9.921572","none","1"
"1133391861733836","3","0.019153614","-0.05746084","9.921572","none","1"
"1133391881724461","3","0.038307227","-0.076614454","9.921572","none","1"
"1133391901746336","3","0.02873042","-0.076614454","9.911995","none","1"
"1133391921736961","3","0.019153614","-0.06703765","9.911995","none","1"
"1133391941729149","3","0.038307227","-0.06703765","9.911995","none","1"
"1133391961751024","3","0.038307227","-0.076614454","9.931149","none","1"
"1133391981741649","3","0.038307227","-0.06703765","9.911995","none","1"
"1133392001732274","3","0.019153614","-0.076614454","9.931149","none","1"
"1133392021754149","3","0.009576807","-0.06703765","9.921572","none","1"
"1133392041746336","3","0.009576807","-0.05746084","9.911995","none","1"
"1133392061736961","3","0.02873042","-0.08619126","9.940725","none","1"
"1133392081727586","3","0.009576807","-0.05746084","9.921572","none","1"
"1133392101749461","3","0.019153614","-0.06703765","9.931149","none","1"
"1133392121740086","3","0.038307227","-0.06703765","9.921572","none","1"
"1133392141732274","3","0.019153614","-0.076614454","9.921572","none","1"
"1133392161754149","3","0.009576807","-0.05746084","9.902418","none","1"
"1133392181744774","3","0.019153614","-0.06703765","9.921572","none","1"
"1133392201735399","3","0.009576807","-0.06703765","9.921572","none","1"
"1133392221743211","3","0.02873042","-0.06703765","9.940725","none","1"
"1133392241749461","3","0.02873042","-0.076614454","9.921572","none","1"
"1133392261740086","3","0.019153614","-0.05746084","9.931149","none","1"
"1133392281730711","3","0.019153614","-0.06703765","9.940725","none","1"
"1133392301752586","3","0.009576807","-0.08619126","9.921572","none","1"
"1133392321743211","3","0.019153614","-0.06703765","9.911995","none","1"
"1133392341735399","3","0.019153614","-0.06703765","9.921572","none","1"
"1133392361726024","3","0.02873042","-0.06703765","9.921572","none","1"
"1133392381747899","3","0.02873042","-0.047884032","9.921572","none","1"
"1133392401738524","3","0.0","-0.047884032","9.931149","none","1"
"1133392421729149","3","0.02873042","-0.076614454","9.921572","none","1"
"1133392441751024","3","0.009576807","-0.047884032","9.931149","none","1"
"1133392461743211","3","0.019153614","-0.047884032","9.931149","none","1"
"1133392481733836","3","0.0","-0.05746084","9.931149","none","1"
"1133392501724461","3","0.019153614","-0.076614454","9.931149","none","1"
"1133392521746336","3","0.0","-0.047884032","9.931149","none","1"
"1133392541738524","3","0.0","-0.047884032","9.921572","none","1"
"1133392561729149","3","0.019153614","-0.06703765","9.940725","none","1"
"1133392581751024","3","0.0","-0.047884032","9.931149","none","1"
"1133392601741649","3","0.019153614","-0.047884032","9.921572","none","1"
"1133392621732274","3","0.019153614","-0.05746084","9.931149","none","1"
"1133392641754149","3","0.019153614","-0.047884032","9.931149","none","1"
"1133392661746336","3","0.009576807","-0.06703765","9.921572","none","1"
"1133392681736961","3","0.019153614","-0.076614454","9.921572","none","1"
"1133392701727586","3","0.009576807","-0.05746084","9.940725","none","1"
"1133392721749461","3","0.009576807","-0.05746084","9.940725","none","1"
"1133392741741649","3","0.019153614","-0.047884032","9.940725","none","1"
"1133392761732274","3","0.019153614","-0.06703765","9.921572","none","1"
"1133392781754149","3","0.0","-0.047884032","9.902418","none","1"
"1133392801744774","3","0.019153614","-0.047884032","9.931149","none","1"
"1133392821735399","3","0.009576807","-0.076614454","9.911995","none","1"
"1133392841727586","3","0.019153614","-0.02873042","9.940725","none","1"
"1133392861749461","3","0.019153614","-0.06703765","9.931149","none","1"
"1133392881740086","3","0.019153614","-0.047884032","9.940725","none","1"
"1133392901730711","3","0.019153614","-0.05746084","9.931149","none","1"
"1133392921769774","3","0.019153614","-0.076614454","9.911995","none","1"
"1133392941743211","3","0.0","-0.047884032","9.940725","none","1"
"1133392961735399","3","0.009576807","-0.06703765","9.921572","none","1"
"1133392981726024","3","0.02873042","-0.05746084","9.950302","none","1"
"1133393001747899","3","0.019153614","-0.076614454","9.940725","none","1"
"1133393021738524","3","0.009576807","-0.05746084","9.921572","none","1"
"1133393041729149","3","0.019153614","-0.047884032","9.940725","none","1"
"1133393061752586","3","0.038307227","-0.06703765","9.931149","none","1"
"1133393081743211","3","0.019153614","-0.05746084","9.940725","none","1"
"1133393101733836","3","0.019153614","-0.047884032","9.940725","none","1"
"1133393121724461","3","0.019153614","-0.05746084","9.940725","none","1"
"1133393141746336","3","0.019153614","-0.05746084","9.911995","none","1"
"1133393161736961","3","0.009576807","-0.047884032","9.931149","none","1"
"1133393181729149","3","0.009576807","-0.06703765","9.940725","none","1"
"1133393201751024","3","0.019153614","-0.06703765","9.921572","none","1"
"1133393221741649","3","0.009576807","-0.05746084","9.931149","sit down","1"
"1133393241733836","3","0.019153614","-0.06703765","9.931149","sit down","1"
"1133393261755711","3","0.009576807","-0.076614454","9.911995","sit down","1"
"1133393281746336","3","0.019153614","-0.076614454","9.921572","sit down","1"
"1133393301736961","3","0.02873042","-0.06703765","9.911995","sit down","1"
"1133393321727586","3","0.009576807","-0.05746084","9.940725","sit down","1"
"1133393341751024","3","0.02873042","-0.06703765","9.940725","sit down","1"
"1133393361741649","3","0.038307227","-0.076614454","9.9790325","sit down","1"
"1133393381732274","3","0.0","-0.08619126","9.988609","sit down","1"
"1133393401754149","3","0.0","-0.05746084","9.873688","sit down","1"
"1133393421744774","3","0.0","-0.05746084","9.864111","sit down","1"
"1133393441735399","3","0.019153614","-0.06703765","9.940725","sit down","1"
"1133393461727586","3","0.009576807","-0.05746084","9.854534","sit down","1"
"1133393481749461","3","0.02873042","-0.047884032","9.873688","sit down","1"
"1133393501740086","3","0.019153614","-0.06703765","9.988609","sit down","1"
"1133393521730711","3","0.02873042","-0.076614454","9.950302","sit down","1"
"1133393541752586","3","0.019153614","-0.038307227","9.940725","sit down","1"
"1133393561744774","3","0.009576807","-0.076614454","9.911995","sit down","1"
"1133393581735399","3","0.019153614","-0.06703765","9.940725","sit down","1"
"1133393601726024","3","0.02873042","-0.06703765","9.940725","sit down","1"
"1133393621765086","3","0.019153614","-0.06703765","9.911995","sit down","1"
"1133393641738524","3","0.019153614","-0.05746084","9.940725","sit down","1"
"1133393661730711","3","0.019153614","-0.05746084","9.892841","sit down","1"
"1133393681752586","3","0.0","-0.047884032","9.931149","sit down","1"
"1133393701743211","3","0.019153614","-0.047884032","9.911995","sit down","1"
"1133393721733836","3","0.019153614","-0.076614454","9.921572","sit down","1"
"1133393741726024","3","0.02873042","-0.047884032","9.921572","sit down","1"
"1133393761747899","3","0.019153614","-0.05746084","9.911995","sit down","1"
"1133393781738524","3","0.019153614","-0.06703765","9.940725","sit down","1"
"1133393801729149","3","0.009576807","-0.05746084","9.940725","sit down","1"
"1133393821751024","3","0.019153614","-0.06703765","9.931149","sit down","1"
"1133393841743211","3","0.019153614","-0.047884032","9.940725","sit down","1"
"1133393861732274","3","0.019153614","-0.05746084","9.931149","sit down","1"
"1133393881755711","3","0.009576807","-0.047884032","9.921572","sit down","1"
"1133393901746336","3","0.0","-0.06703765","9.950302","sit down","1"
"1133393921736961","3","0.0","-0.038307227","9.950302","sit down","1"
"1133393941727586","3","0.019153614","-0.047884032","9.940725","sit down","1"
"1133393961751024","3","0.0","-0.038307227","9.911995","sit down","1"
"1133393981741649","3","0.0","-0.05746084","9.950302","sit down","1"
"1133394001732274","3","0.019153614","-0.06703765","9.902418","sit down","1"
"1133394021754149","3","-0.009576807","-0.06703765","9.959879","sit down","1"
"1133394041744774","3","0.009576807","-0.076614454","9.950302","sit down","1"
"1133394061736961","3","0.047884032","-0.05746084","9.797073","sit down","1"
"1133394081727586","3","0.0","-0.06703765","10.01734","sit down","1"
"1133394101749461","3","0.02873042","-0.095768064","9.77792","sit down","1"
"1133394121740086","3","0.019153614","-0.047884032","10.01734","sit down","1"
"1133394141730711","3","0.0","-0.05746084","9.931149","sit down","1"
"1133394161754149","3","0.009576807","-0.05746084","9.825804","sit down","1"
"1133394181744774","3","-0.10534488","-0.05746084","9.950302","sit down","1"
"1133394201735399","3","-0.019153614","-0.08619126","9.892841","sit down","1"
"1133394221726024","3","-0.076614454","-0.038307227","9.80665","sit down","1"
"1133394241749461","3","-0.095768064","-0.047884032","9.892841","sit down","1"
"1133394261738524","3","0.11492168","-0.076614454","9.9790325","sit down","1"
"1133394281730711","3","0.19153613","-0.06703765","9.959879","sit down","1"
"1133394301752586","3","0.02873042","-0.06703765","9.998186","sit down","1"
"1133394321760399","3","0.06703765","-0.047884032","10.199299","sit down","1"
"1133394341733836","3","0.1436521","-0.1340753","9.950302","sit down","1"
"1133394361726024","3","0.22984336","-0.076614454","10.314221","sit down","1"
"1133394381747899","3","0.0","-0.06703765","10.601525","sit down","1"
"1133394401738524","3","0.31603462","-0.25857377","9.548077","sit down","1"
"1133394421729149","3","0.2681506","-0.1340753","9.021352","sit down","1"
"1133394441751024","3","0.18195933","-0.08619126","9.56723","sit down","1"
"1133394461743211","3","0.038307227","0.0","10.362105","sit down","1"
"1133394481733836","3","0.076614454","-0.12449849","10.036493","sit down","1"
"1133394501724461","3","-0.08619126","-0.06703765","9.739613","sit down","1"
"1133394521746336","3","-0.21068975","-0.038307227","9.758766","sit down","1"
"1133394541736961","3","-0.1436521","-0.095768064","9.892841","sit down","1"
"1133394561727586","3","-0.19153613","-0.076614454","9.911995","sit down","1"
"1133394581751024","3","-0.11492168","-0.076614454","9.797073","sit down","1"
"1133394601741649","3","-0.05746084","-0.047884032","9.921572","sit down","1"
"1133394621732274","3","-0.06703765","-0.08619126","9.902418","sit down","1"
"1133394641754149","3","0.0","-0.08619126","9.80665","sit down","1"
"1133394661744774","3","0.0","-0.076614454","9.873688","sit down","1"
"1133394681735399","3","0.10534488","-0.10534488","9.9790325","sit down","1"
"1133394701727586","3","0.047884032","-0.08619126","9.950302","sit down","1"
"1133394721749461","3","0.08619126","-0.076614454","9.931149","sit down","1"
"1133394741740086","3","0.1340753","-0.10534488","9.9790325","sit down","1"
"1133394761732274","3","0.1340753","-0.08619126","9.940725","sit down","1"
"1133394781754149","3","0.12449849","-0.095768064","9.9790325","sit down","1"
"1133394801744774","3","0.10534488","-0.095768064","9.931149","sit down","1"
"1133394821735399","3","0.10534488","-0.11492168","9.931149","sit down","1"
"1133394841726024","3","0.10534488","-0.076614454","9.959879","sit down","1"
"1133394861749461","3","0.095768064","-0.10534488","9.950302","sit down","1"
"1133394881740086","3","0.1436521","-0.08619126","9.969456","sit down","1"
"1133394901730711","3","0.10534488","-0.095768064","9.959879","sit down","1"
"1133394921752586","3","0.095768064","-0.08619126","9.931149","sit down","1"
"1133394941743211","3","0.095768064","-0.095768064","9.911995","sit down","1"
"1133394961735399","3","0.076614454","-0.08619126","9.883265","sit down","1"
"1133394981726024","3","0.02873042","-0.076614454","9.883265","sit down","1"
"1133395001747899","3","-0.038307227","-0.047884032","9.873688","sit down","1"
"1133395021754149","3","-0.047884032","-0.047884032","9.816227","sit down","1"
"1133395041729149","3","-0.019153614","-0.05746084","9.854534","sit down","1"
"1133395061752586","3","-0.05746084","-0.038307227","9.931149","sit down","1"
"1133395081743211","3","0.019153614","-0.06703765","9.873688","sit down","1"
"1133395101733836","3","-0.009576807","-0.047884032","9.902418","sit down","1"
"1133395121724461","3","-0.019153614","-0.06703765","9.883265","sit down","1"
"1133395141746336","3","0.05746084","-0.047884032","9.835381","sit down","1"
"1133395161736961","3","0.06703765","-0.076614454","9.911995","sit down","1"
"1133395181727586","3","0.095768064","-0.08619126","9.950302","sit down","1"
"1133395201751024","3","0.15322891","-0.10534488","9.959879","sit down","1"
"1133395221741649","3","0.12449849","-0.076614454","9.950302","sit down","1"
"1133395241732274","3","0.15322891","-0.095768064","9.940725","sit down","1"
"1133395261755711","3","0.1436521","-0.11492168","9.988609","sit down","1"
"1133395281746336","3","0.12449849","-0.11492168","9.950302","sit down","1"
"1133395301736961","3","0.11492168","-0.095768064","9.921572","sit down","1"
"1133395321727586","3","0.10534488","-0.08619126","9.921572","sit down","1"
"1133395341749461","3","0.10534488","-0.076614454","9.931149","sit down","1"
"1133395361740086","3","0.076614454","-0.076614454","9.911995","sit down","1"
"1133395381732274","3","0.08619126","-0.08619126","9.931149","sit down","1"
"1133395401754149","3","0.076614454","-0.08619126","9.921572","sit down","1"
"1133395421744774","3","0.076614454","-0.076614454","9.902418","sit down","1"
"1133395441735399","3","0.047884032","-0.076614454","9.911995","sit down","1"
"1133395461727586","3","0.047884032","-0.06703765","9.902418","sit down","1"
"1133395481749461","3","0.047884032","-0.076614454","9.883265","sit down","1"
"1133395501740086","3","0.047884032","-0.06703765","9.892841","sit down","1"
"1133395521730711","3","0.038307227","-0.06703765","9.921572","sit down","1"
"1133395541752586","3","0.05746084","-0.08619126","9.921572","sit down","1"
"1133395561744774","3","0.05746084","-0.06703765","9.902418","sit down","1"
"1133395581733836","3","0.06703765","-0.08619126","9.902418","sit down","1"
"1133395601726024","3","0.06703765","-0.095768064","9.921572","sit down","1"
"1133395621747899","3","0.08619126","-0.095768064","9.902418","sit down","1"
"1133395641738524","3","0.08619126","-0.08619126","9.902418","sit down","1"
"1133395661729149","3","0.12449849","-0.095768064","9.921572","sit down","1"
"1133395681752586","3","0.10534488","-0.095768064","9.921572","sit down","1"
"1133395701743211","3","0.095768064","-0.10534488","9.940725","sit down","1"
"1133395721749461","3","0.12449849","-0.08619126","9.921572","sit down","1"
"1133395741724461","3","0.10534488","-0.095768064","9.911995","sit down","1"
"1133395761746336","3","0.08619126","-0.095768064","9.892841","sit down","1"
"1133395781736961","3","0.08619126","-0.08619126","9.892841","sit down","1"
"1133395801729149","3","0.08619126","-0.076614454","9.911995","sit down","1"
"1133395821751024","3","0.08619126","-0.08619126","9.921572","sit down","1"
"1133395841741649","3","0.08619126","-0.06703765","9.911995","sit down","1"
"1133395861732274","3","0.05746084","-0.06703765","9.921572","sit down","1"
"1133395881754149","3","0.05746084","-0.08619126","9.892841","sit down","1"
"1133395901746336","3","0.06703765","-0.095768064","9.911995","sit down","1"
"1133395921736961","3","0.05746084","-0.05746084","9.902418","sit down","1"
"1133395941727586","3","0.06703765","-0.08619126","9.892841","sit down","1"
"1133395961749461","3","0.047884032","-0.08619126","9.921572","sit down","1"
"1133395981741649","3","0.05746084","-0.08619126","9.911995","sit down","1"
"1133396001732274","3","0.076614454","-0.095768064","9.911995","sit down","1"
"1133396021754149","3","0.10534488","-0.08619126","9.892841","sit down","1"
"1133396041744774","3","0.08619126","-0.076614454","9.892841","sit down","1"
"1133396061735399","3","0.095768064","-0.095768064","9.892841","sit down","1"
"1133396081727586","3","0.08619126","-0.08619126","9.940725","sit down","1"
"1133396101749461","3","0.095768064","-0.10534488","9.911995","sit down","1"
"1133396121740086","3","0.08619126","-0.076614454","9.940725","sit down","1"
"1133396141730711","3","0.076614454","-0.08619126","9.902418","sit down","1"
"1133396161752586","3","0.08619126","-0.08619126","9.892841","sit down","1"
"1133396181744774","3","0.095768064","-0.08619126","9.931149","sit down","1"
"1133396201733836","3","0.076614454","-0.076614454","9.911995","sit down","1"
"1133396221726024","3","0.08619126","-0.08619126","9.892841","sit down","1"
"1133396241747899","3","0.076614454","-0.08619126","9.921572","sit down","1"
"1133396261738524","3","0.08619126","-0.076614454","9.921572","sit down","1"
"1133396281729149","3","0.047884032","-0.076614454","9.902418","sit down","1"
"1133396301752586","3","0.076614454","-0.08619126","9.911995","sit down","1"
"1133396321743211","3","0.06703765","-0.076614454","9.921572","sit down","1"
"1133396341733836","3","0.10534488","-0.095768064","9.911995","sit down","1"
"1133396361726024","3","0.076614454","-0.08619126","9.892841","sit down","1"
"1133396381747899","3","0.10534488","-0.08619126","9.911995","sit down","1"
"1133396401738524","3","0.076614454","-0.08619126","9.911995","sit down","1"
"1133396421744774","3","0.06703765","-0.08619126","9.940725","sit down","1"
"1133396441751024","3","0.08619126","-0.095768064","9.911995","sit down","1"
"1133396461741649","3","0.08619126","-0.05746084","9.931149","sit down","1"
"1133396481732274","3","0.08619126","-0.08619126","9.902418","sit down","1"
"1133396501755711","3","0.08619126","-0.095768064","9.902418","sit down","1"
"1133396521746336","3","0.076614454","-0.10534488","9.931149","sit down","1"
"1133396541736961","3","0.076614454","-0.05746084","9.940725","sit down","1"
"1133396561727586","3","0.08619126","-0.08619126","9.911995","sit down","1"
"1133396581751024","3","0.08619126","-0.08619126","9.921572","sit down","1"
"1133396601741649","3","0.08619126","-0.076614454","9.931149","sit down","1"
"1133396621732274","3","0.076614454","-0.076614454","9.911995","sit down","1"
"1133396641754149","3","0.06703765","-0.08619126","9.921572","sit down","1"
"1133396661744774","3","0.076614454","-0.06703765","9.911995","sit down","1"
"1133396681736961","3","0.076614454","-0.076614454","9.921572","sit down","1"
"1133396701727586","3","0.08619126","-0.076614454","9.921572","sit down","1"
"1133396721749461","3","0.05746084","-0.076614454","9.931149","sit down","1"
"1133396741740086","3","0.08619126","-0.095768064","9.911995","sit down","1"
"1133396761730711","3","0.05746084","-0.08619126","9.921572","sit down","1"
"1133396781752586","3","0.06703765","-0.076614454","9.892841","sit down","1"
"1133396801744774","3","0.08619126","-0.076614454","9.931149","sit down","1"
"1133396821735399","3","0.076614454","-0.095768064","9.921572","sit down","1"
"1133396841726024","3","0.08619126","-0.095768064","9.911995","sit down","1"
"1133396861747899","3","0.076614454","-0.08619126","9.931149","sit down","1"
"1133396881738524","3","0.076614454","-0.076614454","9.921572","sit down","1"
"1133396901730711","3","0.06703765","-0.08619126","9.902418","sit down","1"
"1133396921752586","3","0.06703765","-0.076614454","9.921572","sit down","1"
"1133396941743211","3","0.076614454","-0.08619126","9.911995","sit down","1"
"1133396961733836","3","0.08619126","-0.08619126","9.902418","sit down","1"
"1133396981724461","3","0.076614454","-0.076614454","9.911995","sit down","1"
"1133397001746336","3","0.08619126","-0.076614454","9.931149","sit down","1"
"1133397021738524","3","0.076614454","-0.08619126","9.902418","sit down","1"
"1133397041729149","3","0.095768064","-0.076614454","9.931149","sit down","1"
"1133397061751024","3","0.076614454","-0.047884032","9.921572","sit down","1"
"1133397081741649","3","0.08619126","-0.076614454","9.911995","sit down","1"
"1133397101733836","3","0.076614454","-0.08619126","9.902418","sit down","1"
"1133397121740086","3","0.06703765","-0.08619126","9.921572","sit down","1"
"1133397141746336","3","0.076614454","-0.06703765","9.921572","sit down","1"
"1133397161736961","3","0.076614454","-0.06703765","9.902418","sit down","1"
"1133397181727586","3","0.05746084","-0.08619126","9.921572","sit down","1"
"1133397201751024","3","0.08619126","-0.095768064","9.892841","sit down","1"
"1133397221741649","3","0.08619126","-0.076614454","9.921572","lay down","1"
"1133397241732274","3","0.095768064","-0.076614454","9.911995","lay down","1"
"1133397261754149","3","0.095768064","-0.076614454","9.940725","lay down","1"
"1133397281744774","3","0.076614454","-0.076614454","9.911995","lay down","1"
"1133397301736961","3","0.076614454","-0.076614454","9.931149","lay down","1"
"1133397321727586","3","0.06703765","-0.076614454","9.911995","lay down","1"
"1133397341749461","3","0.06703765","-0.076614454","9.911995","lay down","1"
"1133397361740086","3","0.08619126","-0.095768064","9.959879","lay down","1"
"1133397381730711","3","0.047884032","-0.095768064","9.9790325","lay down","1"
"1133397401754149","3","0.05746084","-0.076614454","9.854534","lay down","1"
"1133397421744774","3","0.05746084","-0.05746084","9.854534","lay down","1"
"1133397441735399","3","0.047884032","-0.076614454","9.902418","lay down","1"
"1133397461726024","3","0.076614454","-0.10534488","10.036493","lay down","1"
"1133397481747899","3","0.08619126","-0.10534488","10.055647","lay down","1"
"1133397501740086","3","0.038307227","-0.08619126","9.931149","lay down","1"
"1133397521730711","3","0.05746084","-0.08619126","9.959879","lay down","1"
"1133397541752586","3","0.05746084","-0.08619126","9.950302","lay down","1"
"1133397561743211","3","0.08619126","-0.076614454","9.902418","lay down","1"
"1133397581733836","3","0.095768064","-0.08619126","9.921572","lay down","1"
"1133397601726024","3","0.05746084","-0.076614454","9.931149","lay down","1"
"1133397621747899","3","0.076614454","-0.076614454","9.902418","lay down","1"
"1133397641738524","3","0.06703765","-0.08619126","9.931149","lay down","1"
"1133397661729149","3","0.08619126","-0.076614454","9.902418","lay down","1"
"1133397681751024","3","0.076614454","-0.08619126","9.940725","lay down","1"
"1133397701743211","3","0.08619126","-0.095768064","9.950302","lay down","1"
"1133397721733836","3","0.06703765","-0.06703765","9.931149","lay down","1"
"1133397741724461","3","0.08619126","-0.076614454","9.911995","lay down","1"
"1133397761746336","3","0.076614454","-0.08619126","9.911995","lay down","1"
"1133397781736961","3","0.076614454","-0.095768064","9.921572","lay down","1"
"1133397801729149","3","0.08619126","-0.076614454","9.911995","lay down","1"
"1133397821766649","3","0.095768064","-0.08619126","9.950302","lay down","1"
"1133397841741649","3","0.06703765","-0.06703765","9.931149","lay down","1"
"1133397861732274","3","0.06703765","-0.08619126","9.911995","lay down","1"
"1133397881754149","3","0.08619126","-0.06703765","9.892841","lay down","1"
"1133397901746336","3","0.076614454","-0.076614454","9.931149","lay down","1"
"1133397921736961","3","0.076614454","-0.05746084","9.921572","lay down","1"
"1133397941727586","3","0.10534488","-0.08619126","9.969456","lay down","1"
"1133397961749461","3","0.08619126","-0.06703765","9.921572","lay down","1"
"1133397981740086","3","0.06703765","-0.10534488","9.911995","lay down","1"
"1133398001732274","3","0.10534488","-0.08619126","9.921572","lay down","1"
"1133398021754149","3","0.11492168","-0.06703765","9.921572","lay down","1"
"1133398041744774","3","0.019153614","-0.06703765","9.921572","lay down","1"
"1133398061735399","3","0.076614454","-0.06703765","9.883265","lay down","1"
"1133398081726024","3","0.20111294","-0.11492168","9.969456","lay down","1"
"1133398101747899","3","0.24899697","-0.10534488","10.0748005","lay down","1"
"1133398121740086","3","0.08619126","-0.06703765","9.969456","lay down","1"
"1133398141730711","3","0.11492168","-0.08619126","9.902418","lay down","1"
"1133398161752586","3","0.22984336","-0.11492168","9.931149","lay down","1"
"1133398181743211","3","0.23942018","-0.10534488","9.998186","lay down","1"
"1133398201735399","3","0.16280572","-0.076614454","9.998186","lay down","1"
"1133398221726024","3","0.05746084","0.0","9.873688","lay down","1"
"1133398241747899","3","0.0","-0.047884032","9.854534","lay down","1"
"1133398261738524","3","0.06703765","-0.047884032","9.864111","lay down","1"
"1133398281729149","3","0.18195933","-0.047884032","9.911995","lay down","1"
"1133398301752586","3","0.1436521","-0.12449849","9.940725","lay down","1"
"1133398321743211","3","0.08619126","-0.05746084","9.921572","lay down","1"
"1133398341733836","3","0.16280572","-0.076614454","9.911995","lay down","1"
"1133398361724461","3","0.15322891","-0.076614454","9.911995","lay down","1"
"1133398381746336","3","0.009576807","-0.06703765","9.892841","lay down","1"
"1133398401736961","3","0.0","-0.076614454","9.883265","lay down","1"
"1133398421729149","3","0.019153614","-0.047884032","9.911995","lay down","1"
"1133398441751024","3","-0.11492168","-0.05746084","9.883265","lay down","1"
"1133398461741649","3","0.15322891","-0.009576807","9.854534","lay down","1"
"1133398481732274","3","0.15322891","-0.08619126","9.950302","lay down","1"
"1133398501754149","3","0.06703765","-0.038307227","9.940725","lay down","1"
"1133398521761961","3","0.095768064","-0.047884032","9.854534","lay down","1"
"1133398541736961","3","0.23942018","-0.06703765","9.902418","lay down","1"
"1133398561727586","3","0.25857377","-0.12449849","9.959879","lay down","1"
"1133398581749461","3","0.2681506","-0.038307227","10.065224","lay down","1"
"1133398601741649","3","0.2873042","0.009576807","9.988609","lay down","1"
"1133398621732274","3","0.22026655","-0.009576807","9.9790325","lay down","1"
"1133398641754149","3","0.1340753","0.0","9.988609","lay down","1"
"1133398661744774","3","0.2873042","0.02873042","9.902418","lay down","1"
"1133398681735399","3","0.32561144","-0.009576807","9.931149","lay down","1"
"1133398701727586","3","0.18195933","-0.02873042","9.969456","lay down","1"
"1133398721749461","3","-0.25857377","-0.076614454","9.854534","lay down","1"
"1133398741740086","3","-0.49799395","-0.06703765","9.730036","lay down","1"
"1133398761730711","3","-0.31603462","-0.30645782","9.758766","lay down","1"
"1133398781752586","3","-0.12449849","0.21068975","10.065224","lay down","1"
"1133398801743211","3","-0.08619126","-0.48841715","9.624691","lay down","1"
"1133398821735399","3","-0.545878","0.095768064","10.141838","lay down","1"
"1133398841726024","3","0.22984336","-0.038307227","9.749189","lay down","1"
"1133398861747899","3","0.02873042","-0.22026655","9.77792","lay down","1"
"1133398881738524","3","-0.2873042","-0.15322891","10.160992","lay down","1"
"1133398901730711","3","0.2681506","-0.05746084","9.921572","lay down","1"
"1133398921752586","3","0.047884032","-0.11492168","10.036493","lay down","1"
"1133398941743211","3","-0.02873042","0.02873042","10.151415","lay down","1"
"1133398961733836","3","0.22984336","-0.10534488","10.0269165","lay down","1"
"1133398981724461","3","0.22984336","-0.08619126","10.007763","lay down","1"
"1133399001747899","3","0.18195933","-0.05746084","9.998186","lay down","1"
"1133399021736961","3","0.15322891","-0.076614454","9.969456","lay down","1"
"1133399041729149","3","0.095768064","-0.08619126","9.940725","lay down","1"
"1133399061751024","3","0.11492168","-0.076614454","9.892841","lay down","1"
"1133399081741649","3","0.1436521","-0.076614454","9.902418","lay down","1"
"1133399101732274","3","0.08619126","-0.10534488","9.988609","lay down","1"
"1133399121754149","3","0.10534488","-0.10534488","9.931149","lay down","1"
"1133399141746336","3","0.047884032","-0.047884032","9.902418","lay down","1"
"1133399161736961","3","-0.06703765","0.0","9.835381","lay down","1"
"1133399181727586","3","-0.18195933","-0.009576807","9.911995","lay down","1"
"1133399201749461","3","-0.22984336","-0.019153614","9.911995","lay down","1"
"1133399221757274","3","-0.25857377","-0.019153614","9.864111","lay down","1"
"1133399241732274","3","-0.17238252","-0.038307227","9.902418","lay down","1"
"1133399261754149","3","-0.18195933","-0.05746084","9.911995","lay down","1"
"1133399281744774","3","-0.18195933","-0.06703765","9.911995","lay down","1"
"1133399301735399","3","0.0","-0.22026655","9.9790325","lay down","1"
"1133399321727586","3","0.047884032","0.019153614","10.113108","lay down","1"
"1133399341749461","3","-0.038307227","0.36391866","9.921572","lay down","1"
"1133399361740086","3","0.10534488","-0.076614454","9.998186","lay down","1"
"1133399381730711","3","-0.038307227","-0.038307227","10.093954","lay down","1"
"1133399401752586","3","0.019153614","-0.009576807","9.749189","lay down","1"
"1133399421744774","3","-0.20111294","-0.076614454","10.103531","lay down","1"
"1133399441735399","3","-0.095768064","-0.019153614","9.854534","lay down","1"
"1133399461726024","3","-0.02873042","-0.05746084","9.825804","lay down","1"
"1133399481747899","3","-0.095768064","-0.047884032","9.921572","lay down","1"
"1133399501738524","3","-0.009576807","-0.095768064","9.940725","lay down","1"
"1133399521730711","3","0.019153614","-0.11492168","9.950302","lay down","1"
"1133399541752586","3","0.02873042","-0.095768064","9.988609","lay down","1"
"1133399561743211","3","0.009576807","-0.095768064","9.911995","lay down","1"
"1133399581733836","3","0.009576807","-0.076614454","9.940725","lay down","1"
"1133399601724461","3","0.05746084","-0.095768064","9.921572","lay down","1"
"1133399621746336","3","0.019153614","-0.11492168","9.883265","lay down","1"
"1133399641738524","3","-0.02873042","-0.05746084","9.921572","lay down","1"
"1133399661729149","3","-0.02873042","-0.047884032","9.911995","lay down","1"
"1133399681751024","3","-0.06703765","-0.047884032","9.873688","lay down","1"
"1133399701743211","3","-0.095768064","-0.047884032","9.931149","lay down","1"
"1133399721733836","3","-0.02873042","-0.047884032","9.931149","lay down","1"
"1133399741755711","3","-0.009576807","-0.05746084","9.931149","lay down","1"
"1133399761746336","3","0.0","-0.05746084","9.940725","lay down","1"
"1133399781736961","3","-0.009576807","-0.06703765","9.921572","lay down","1"
"1133399801727586","3","0.0","-0.05746084","9.959879","lay down","1"
"1133399821751024","3","0.0","-0.019153614","9.902418","lay down","1"
"1133399841741649","3","-0.009576807","-0.038307227","9.931149","lay down","1"
"1133399861732274","3","-0.009576807","-0.038307227","9.921572","lay down","1"
"1133399881754149","3","0.0","-0.02873042","9.911995","lay down","1"
"1133399901744774","3","0.0","-0.047884032","9.921572","lay down","1"
"1133399921752586","3","-0.009576807","-0.05746084","9.921572","lay down","1"
"1133399941727586","3","0.0","-0.05746084","9.959879","lay down","1"
"1133399961749461","3","0.0","-0.05746084","9.950302","lay down","1"
"1133399981740086","3","-0.009576807","-0.076614454","9.921572","lay down","1"
"1133400001730711","3","-0.009576807","-0.06703765","9.950302","lay down","1"
"1133400021752586","3","-0.009576807","-0.06703765","9.950302","lay down","1"
"1133400041744774","3","0.0","-0.06703765","9.940725","lay down","1"
"1133400061735399","3","0.0","-0.05746084","9.940725","lay down","1"
"1133400081726024","3","-0.009576807","-0.047884032","9.950302","lay down","1"
"1133400101747899","3","-0.019153614","-0.076614454","9.950302","lay down","1"
"1133400121738524","3","-0.009576807","-0.076614454","9.921572","lay down","1"
"1133400141730711","3","0.0","-0.08619126","9.959879","lay down","1"
"1133400161752586","3","-0.009576807","-0.06703765","9.931149","lay down","1"
"1133400181743211","3","-0.009576807","-0.02873042","9.921572","lay down","1"
"1133400201733836","3","0.0","-0.06703765","9.911995","lay down","1"
"1133400221726024","3","-0.019153614","-0.06703765","9.950302","lay down","1"
"1133400241747899","3","-0.019153614","-0.05746084","9.931149","lay down","1"
"1133400261738524","3","-0.009576807","-0.06703765","9.892841","lay down","1"
"1133400281729149","3","0.0","-0.05746084","9.931149","lay down","1"
"1133400301752586","3","-0.019153614","-0.038307227","9.940725","lay down","1"
"1133400321743211","3","0.0","-0.047884032","9.931149","lay down","1"
"1133400341733836","3","-0.019153614","-0.06703765","9.931149","lay down","1"
"1133400361724461","3","0.0","-0.076614454","9.892841","lay down","1"
"1133400381746336","3","-0.009576807","-0.05746084","9.921572","lay down","1"
"1133400401736961","3","0.0","-0.05746084","9.931149","lay down","1"
"1133400421729149","3","-0.009576807","-0.05746084","9.902418","lay down","1"
"1133400441751024","3","0.0","-0.06703765","9.931149","lay down","1"
"1133400461741649","3","-0.019153614","-0.06703765","9.950302","lay down","1"
"1133400481732274","3","-0.019153614","-0.05746084","9.911995","lay down","1"
"1133400501754149","3","0.0","-0.076614454","9.921572","lay down","1"
"1133400521746336","3","0.0","-0.06703765","9.931149","lay down","1"
"1133400541735399","3","-0.02873042","-0.047884032","9.931149","lay down","1"
"1133400561727586","3","0.0","-0.06703765","9.911995","lay down","1"
"1133400581749461","3","-0.009576807","-0.06703765","9.921572","lay down","1"
"1133400601740086","3","-0.009576807","-0.05746084","9.911995","lay down","1"
"1133400621747899","3","0.0","-0.076614454","9.950302","lay down","1"
"1133400641754149","3","0.0","-0.06703765","9.911995","lay down","1"
"1133400661744774","3","-0.009576807","-0.05746084","9.921572","lay down","1"
"1133400681735399","3","-0.019153614","-0.05746084","9.969456","lay down","1"
"1133400701726024","3","0.0","-0.05746084","9.902418","lay down","1"
"1133400721749461","3","-0.009576807","-0.05746084","9.921572","lay down","1"
"1133400741738524","3","0.0","-0.047884032","9.940725","lay down","1"
"1133400761730711","3","-0.009576807","-0.05746084","9.911995","lay down","1"
"1133400781752586","3","-0.019153614","-0.05746084","9.921572","lay down","1"
"1133400801743211","3","-0.019153614","-0.038307227","9.921572","lay down","1"
"1133400821733836","3","-0.019153614","-0.05746084","9.950302","lay down","1"
"1133400841726024","3","-0.02873042","-0.06703765","9.931149","lay down","1"
"1133400861747899","3","-0.019153614","-0.047884032","9.950302","lay down","1"
"1133400881738524","3","-0.009576807","-0.06703765","9.911995","lay down","1"
"1133400901729149","3","0.0","-0.076614454","9.940725","lay down","1"
"1133400921751024","3","-0.009576807","-0.05746084","9.931149","lay down","1"
"1133400941743211","3","-0.009576807","-0.05746084","9.931149","lay down","1"
"1133400961733836","3","0.0","-0.06703765","9.950302","lay down","1"
"1133400981724461","3","-0.019153614","-0.05746084","9.921572","lay down","1"
"1133401001746336","3","-0.009576807","-0.06703765","9.940725","lay down","1"
"1133401021736961","3","0.0","-0.076614454","9.921572","lay down","1"
"1133401041729149","3","0.0","-0.08619126","9.940725","lay down","1"
"1133401061751024","3","-0.019153614","-0.06703765","9.931149","lay down","1"
"1133401081741649","3","-0.009576807","-0.06703765","9.931149","lay down","1"
